text,letterColor,correctAnswer,congruent,practice.thisRepN,practice.thisTrialN,practice.thisN,practice.thisIndex,trial_loop.thisRepN,trial_loop.thisTrialN,trial_loop.thisN,trial_loop.thisIndex,trials.thisRepN,trials.thisTrialN,trials.thisN,trials.thisIndex,instr1.started,instr1.stopped,word.started,word.stopped,resp.keys,resp.corr,resp.rt,resp.started,resp.stopped,fixation.started,fixation.stopped,feedback_2.started,feedback_2.stopped,sound_1.started,sound_1.stopped,instrText.started,instrText.stopped,feedback_3.started,feedback_3.stopped,sound_2.started,sound_2.stopped,thanksText.started,thanksText.stopped,participant,session,posture,date,expName,psychopyVersion,frameRate,
red,green,m,incongruent,0,0,0,5,,,,,,,,,7.420801162719727,None,9.992492198944092,None,m,1,0.8052141666412354,9.992492198944092,None,9.501850128173828,10.047078132629395,10.84958004951477,None,10.83508951663971,None,,,,,,,,,0001,01,sitting,2021_Aug_09_1500,stroop,2021.2.0,59.963515545922945,
XXXXX,green,m,neutral,0,1,1,15,,,,,,,,,,,12.890186071395874,None,m,1,0.6117749214172363,12.890186071395874,None,12.40342402458191,12.947957992553711,13.557510137557983,None,13.537915539741517,14.069661140441895,,,,,,,,,0001,01,sitting,2021_Aug_09_1500,stroop,2021.2.0,59.963515545922945,
green,green,m,congruent,0,2,2,23,,,,,,,,,,,15.576004028320312,None,m,1,0.3897562026977539,15.576004028320312,None,15.084050178527832,15.630415201187134,16.04024910926819,None,16.030545544624328,None,,,,,,,,,0001,01,sitting,2021_Aug_09_1500,stroop,2021.2.0,59.963515545922945,
XXXXX,green,m,neutral,0,3,3,3,,,,,,,,,,,18.078670024871826,None,m,1,0.33533596992492676,18.078670024871826,None,17.589057207107544,18.136056184768677,18.495657205581665,None,18.47711760997772,18.997828006744385,,,,,,,,,0001,01,sitting,2021_Aug_09_1500,stroop,2021.2.0,59.963515545922945,
XXXXX,green,m,neutral,0,4,4,27,,,,,,,,,,,20.531440019607544,None,m,1,0.33057212829589844,20.531440019607544,None,20.042604207992554,20.588340997695923,20.94783115386963,None,20.92883665561676,21.45135807991028,,,,,,,,,0001,01,sitting,2021_Aug_09_1500,stroop,2021.2.0,59.963515545922945,
red,red,z,congruent,0,5,5,20,,,,,,,,,,,22.956027030944824,None,z,1,0.29003405570983887,22.956027030944824,None,22.48242211341858,23.049845218658447,23.325762033462524,None,23.306894612312316,None,,,,,,,,,0001,01,sitting,2021_Aug_09_1500,stroop,2021.2.0,59.963515545922945,
red,red,z,congruent,0,6,6,8,,,,,,,,,,,25.346559047698975,None,z,1,0.3793151378631592,25.346559047698975,None,24.858477115631104,25.404126167297363,25.783839225769043,None,25.77487952709198,None,,,,,,,,,0001,01,sitting,2021_Aug_09_1500,stroop,2021.2.0,59.963515545922945,
green,red,z,incongruent,0,7,7,28,,,,,,,,,,,27.808160066604614,None,z,1,0.39763307571411133,27.808160066604614,None,27.326593160629272,27.902087211608887,28.27074408531189,None,28.26212556362152,None,,,,,,,,,0001,01,sitting,2021_Aug_09_1500,stroop,2021.2.0,59.963515545922945,
XXX,red,z,neutral,0,8,8,24,,,,,,,,,,,30.296650171279907,None,m,0,0.4215419292449951,30.296650171279907,None,29.80750608444214,30.354090213775635,30.800815105438232,None,30.77762062549591,31.306704998016357,,,,,,,,,0001,01,sitting,2021_Aug_09_1500,stroop,2021.2.0,59.963515545922945,
XXXXX,red,z,neutral,0,9,9,14,,,,,,,,,,,32.82577705383301,None,z,1,0.276339054107666,32.82577705383301,None,32.33736205101013,32.88363814353943,33.15987205505371,None,33.140923571586605,None,,,,,,,,,0001,01,sitting,2021_Aug_09_1500,stroop,2021.2.0,59.963515545922945,
red,green,m,incongruent,0,10,10,7,,,,,,,,,,,35.16510200500488,None,m,1,0.5609278678894043,35.16510200500488,None,34.691832065582275,35.26002812385559,35.789138078689575,None,35.77893764972686,None,,,,,,,,,0001,01,sitting,2021_Aug_09_1500,stroop,2021.2.0,59.963515545922945,
green,red,z,incongruent,0,11,11,18,,,,,,,,,,,37.831202030181885,None,z,1,0.5188660621643066,37.831202030181885,None,37.33595299720764,37.88729405403137,38.4366991519928,None,38.421669554710384,None,,,,,,,,,0001,01,sitting,2021_Aug_09_1500,stroop,2021.2.0,59.963515545922945,
XXX,red,z,neutral,0,12,12,12,,,,,,,,,,,40.462932109832764,None,m,0,0.6712210178375244,40.462932109832764,None,39.98341107368469,40.55680012702942,41.22506403923035,None,41.201685500144954,None,,,,,,,,,0001,01,sitting,2021_Aug_09_1500,stroop,2021.2.0,59.963515545922945,
red,green,m,incongruent,0,13,13,19,,,,,,,,,,,43.263670206069946,None,m,1,0.46241283416748047,43.263670206069946,None,42.77174115180969,43.32621216773987,43.79678416252136,None,43.776474547386165,44.30114507675171,,,,,,,,,0001,01,sitting,2021_Aug_09_1500,stroop,2021.2.0,59.963515545922945,
XXX,green,m,neutral,0,14,14,25,,,,,,,,,,,45.81964612007141,None,m,1,0.3382740020751953,45.81964612007141,None,45.34307408332825,45.879154205322266,46.2380850315094,None,46.22403056621551,None,,,,,,,,,0001,01,sitting,2021_Aug_09_1500,stroop,2021.2.0,59.963515545922945,
red,red,z,congruent,0,15,15,22,,,,,,,,,,,48.25063920021057,None,z,1,0.29157400131225586,48.25063920021057,None,47.77575421333313,48.313085079193115,48.610647201538086,None,48.58608562946319,None,,,,,,,,,0001,01,sitting,2021_Aug_09_1500,stroop,2021.2.0,59.963515545922945,
green,red,z,incongruent,0,16,16,6,,,,,,,,,,,50.633530139923096,None,m,0,0.5326390266418457,50.633530139923096,None,50.157142162323,50.694709062576294,51.26041007041931,None,51.236528468132015,51.76788902282715,,,,,,,,,0001,01,sitting,2021_Aug_09_1500,stroop,2021.2.0,59.963515545922945,
red,red,z,congruent,0,17,17,32,,,,,,,,,,,53.30448818206787,None,z,1,0.30966782569885254,53.30448818206787,None,52.81199312210083,53.36706519126892,53.70844602584839,None,53.68474061489105,None,,,,,,,,,0001,01,sitting,2021_Aug_09_1500,stroop,2021.2.0,59.963515545922945,
XXXXX,red,z,neutral,0,18,18,26,,,,,,,,,,,55.73882007598877,None,z,1,0.38723111152648926,55.73882007598877,None,55.25728702545166,55.79811120033264,56.207192182540894,None,56.184271645545955,56.71729016304016,,,,,,,,,0001,01,sitting,2021_Aug_09_1500,stroop,2021.2.0,59.963515545922945,
red,red,z,congruent,0,19,19,10,,,,,,,,,,,58.2341570854187,None,z,1,0.22795987129211426,58.2341570854187,None,57.76097106933594,58.294191122055054,58.5305871963501,None,58.514503550529476,59.04246520996094,,,,,,,,,0001,01,sitting,2021_Aug_09_1500,stroop,2021.2.0,59.963515545922945,
XXX,green,m,neutral,0,20,20,13,,,,,,,,,,,60.55627107620239,None,m,1,0.3378739356994629,60.55627107620239,None,60.07656407356262,60.61726713180542,60.948867082595825,None,60.92872745990753,None,,,,,,,,,0001,01,sitting,2021_Aug_09_1500,stroop,2021.2.0,59.963515545922945,
red,green,m,incongruent,0,21,21,31,,,,,,,,,,,62.98229002952576,None,m,1,0.39185404777526855,62.98229002952576,None,62.48881220817566,63.044825077056885,63.47956109046936,None,63.4529946565628,None,,,,,,,,,0001,01,sitting,2021_Aug_09_1500,stroop,2021.2.0,59.963515545922945,
red,green,m,incongruent,0,22,22,29,,,,,,,,,,,65.50286507606506,None,m,1,0.2871279716491699,65.50286507606506,None,65.0109031200409,65.5652642250061,65.84296107292175,None,65.8281784772873,None,,,,,,,,,0001,01,sitting,2021_Aug_09_1500,stroop,2021.2.0,59.963515545922945,
green,red,z,incongruent,0,23,23,4,,,,,,,,,,,67.88459014892578,None,z,1,0.30567097663879395,67.88459014892578,None,67.3998920917511,67.94363403320312,68.27936601638794,None,68.25303061008454,68.76898622512817,,,,,,,,,0001,01,sitting,2021_Aug_09_1500,stroop,2021.2.0,59.963515545922945,
red,red,z,congruent,0,24,24,34,,,,,,,,,,,70.29769921302795,None,m,0,0.3403902053833008,70.29769921302795,None,69.82234311103821,70.35686707496643,70.71410322189331,None,70.70040662288666,None,,,,,,,,,0001,01,sitting,2021_Aug_09_1500,stroop,2021.2.0,59.963515545922945,
green,green,m,congruent,0,25,25,35,,,,,,,,,,,72.72035121917725,None,z,0,0.28590989112854004,72.72035121917725,None,72.24366903305054,72.77964520454407,73.06627321243286,None,73.04947264194489,73.57051014900208,,,,,,,,,0001,01,sitting,2021_Aug_09_1500,stroop,2021.2.0,59.963515545922945,
green,red,z,incongruent,0,26,26,30,,,,,,,,,,,75.10508513450623,None,z,1,0.317241907119751,75.10508513450623,None,74.61311221122742,75.16737413406372,75.5086190700531,None,75.4852326631546,None,,,,,,,,,0001,01,sitting,2021_Aug_09_1500,stroop,2021.2.0,59.963515545922945,
green,green,m,congruent,0,27,27,11,,,,,,,,,,,77.53249621391296,None,m,1,0.43385910987854004,77.53249621391296,None,77.05321311950684,77.59175419807434,78.04756903648376,None,78.02414758205414,78.54123711585999,,,,,,,,,0001,01,sitting,2021_Aug_09_1500,stroop,2021.2.0,59.963515545922945,
green,green,m,congruent,0,28,28,33,,,,,,,,,,,80.07488107681274,None,m,1,0.3232238292694092,80.07488107681274,None,79.58332204818726,80.13715100288391,80.45190405845642,None,80.43840963840485,None,,,,,,,,,0001,01,sitting,2021_Aug_09_1500,stroop,2021.2.0,59.963515545922945,
green,red,z,incongruent,0,29,29,16,,,,,,,,,,,82.49962019920349,None,z,1,0.4106011390686035,82.49962019920349,None,82.00666904449463,82.58498215675354,83.05927014350891,None,83.04078953266145,83.56566715240479,,,,,,,,,0001,01,sitting,2021_Aug_09_1500,stroop,2021.2.0,59.963515545922945,
XXXXX,red,z,neutral,0,30,30,2,,,,,,,,,,,85.10034108161926,None,m,0,0.38581204414367676,85.10034108161926,None,84.610356092453,85.1609411239624,85.57091021537781,None,85.55502445697785,None,,,,,,,,,0001,01,sitting,2021_Aug_09_1500,stroop,2021.2.0,59.963515545922945,
green,green,m,congruent,0,31,31,9,,,,,,,,,,,87.62386417388916,None,m,1,0.5185158252716064,87.62386417388916,None,87.13096714019775,87.68643307685852,88.20649409294128,None,88.18276555538178,88.717276096344,,,,,,,,,0001,01,sitting,2021_Aug_09_1500,stroop,2021.2.0,59.963515545922945,
XXX,green,m,neutral,0,32,32,1,,,,,,,,,,,90.25296711921692,None,m,1,0.3534989356994629,90.25296711921692,None,89.76479816436768,90.31207513809204,90.69423317909241,None,90.6706746339798,None,,,,,,,,,0001,01,sitting,2021_Aug_09_1500,stroop,2021.2.0,59.963515545922945,
XXX,red,z,neutral,0,33,33,0,,,,,,,,,,,92.7197802066803,None,z,1,0.39850711822509766,92.7197802066803,None,92.24258017539978,92.77905702590942,93.18120121955872,None,93.16751058101654,None,,,,,,,,,0001,01,sitting,2021_Aug_09_1500,stroop,2021.2.0,59.963515545922945,
red,green,m,incongruent,0,34,34,17,,,,,,,,,,,95.21548700332642,None,m,1,0.38293004035949707,95.21548700332642,None,94.73867321014404,95.27475309371948,95.6603000164032,None,95.63684351444245,96.16242599487305,,,,,,,,,0001,01,sitting,2021_Aug_09_1500,stroop,2021.2.0,59.963515545922945,
green,green,m,congruent,0,35,35,21,,,,,,,,,,,97.69241118431091,None,m,1,0.3220248222351074,97.69241118431091,None,97.20898604393005,97.7547390460968,98.09530305862427,None,98.07211048603058,None,,,,,,,,,0001,01,sitting,2021_Aug_09_1500,stroop,2021.2.0,59.963515545922945,
XXXXX,green,m,neutral,,,,,0,0,0,0,0,0,0,27,,,109.35948419570923,None,m,1,0.7987117767333984,109.35948419570923,None,108.86141920089722,109.41865015029907,,,,,99.6881651878357,None,110.23615503311157,None,110.22394258975983,None,,,0001,01,sitting,2021_Aug_09_1500,stroop,2021.2.0,59.963515545922945,
green,red,z,incongruent,,,,,0,0,0,0,0,1,1,18,,,112.24915313720703,None,z,1,0.35712599754333496,112.24915313720703,None,111.77506804466248,112.30837821960449,,,,,,,112.66354322433472,None,112.65179760456085,None,,,0001,01,sitting,2021_Aug_09_1500,stroop,2021.2.0,59.963515545922945,
green,green,m,congruent,,,,,0,0,0,0,0,2,2,33,,,114.68747019767761,None,m,1,0.5270161628723145,114.68747019767761,None,114.19604110717773,114.74974513053894,,,,,,,115.309011220932,None,115.29123551845551,None,,,0001,01,sitting,2021_Aug_09_1500,stroop,2021.2.0,59.963515545922945,
XXX,green,m,neutral,,,,,0,0,0,0,0,3,3,13,,,117.33810806274414,None,m,1,0.3403959274291992,117.33810806274414,None,116.84452319145203,117.40047907829285,,,,,,,117.73635005950928,None,117.71838552951813,118.24334001541138,,,0001,01,sitting,2021_Aug_09_1500,stroop,2021.2.0,59.963515545922945,
red,green,m,incongruent,,,,,0,0,0,0,0,4,4,5,,,119.77411818504333,None,m,1,0.3364708423614502,119.77411818504333,None,119.28162908554077,119.83637404441833,,,,,,,120.1719081401825,None,120.15411860942841,None,,,0001,01,sitting,2021_Aug_09_1500,stroop,2021.2.0,59.963515545922945,
green,red,z,incongruent,,,,,0,0,0,0,0,5,5,16,,,122.2028341293335,None,z,1,0.32366108894348145,122.2028341293335,None,121.71031022071838,122.26511812210083,,,,,,,122.6005380153656,None,122.58304460048676,None,,,0001,01,sitting,2021_Aug_09_1500,stroop,2021.2.0,59.963515545922945,
green,green,m,congruent,,,,,0,0,0,0,0,6,6,35,,,124.60295510292053,None,m,1,0.38758301734924316,124.60295510292053,None,124.12872004508972,124.66215920448303,,,,,,,125.07468605041504,None,125.05725462436676,None,,,0001,01,sitting,2021_Aug_09_1500,stroop,2021.2.0,59.963515545922945,
XXXXX,red,z,neutral,,,,,0,0,0,0,0,7,7,2,,,127.10654711723328,None,z,1,0.4277670383453369,127.10654711723328,None,126.61386799812317,127.1690661907196,,,,,,,127.61443901062012,None,127.60287744998932,None,,,0001,01,sitting,2021_Aug_09_1500,stroop,2021.2.0,59.963515545922945,
XXXXX,green,m,neutral,,,,,0,0,0,0,0,8,8,3,,,129.64768409729004,None,m,1,0.38293981552124023,129.64768409729004,None,129.15598011016846,129.71016907691956,,,,,,,130.09055614471436,None,130.07255346775057,None,,,0001,01,sitting,2021_Aug_09_1500,stroop,2021.2.0,59.963515545922945,
green,green,m,congruent,,,,,0,0,0,0,0,9,9,11,,,132.1113531589508,None,m,1,0.4309349060058594,132.1113531589508,None,131.6283721923828,132.17059803009033,,,,,,,132.60930514335632,None,132.59778459072115,133.11145401000977,,,0001,01,sitting,2021_Aug_09_1500,stroop,2021.2.0,59.963515545922945,
XXX,red,z,neutral,,,,,0,0,0,0,0,10,10,0,,,134.65589499473572,None,z,1,0.41441917419433594,134.65589499473572,None,134.1629831790924,134.71838116645813,,,,,,,135.1230981349945,None,135.11140854358675,None,,,0001,01,sitting,2021_Aug_09_1500,stroop,2021.2.0,59.963515545922945,
red,red,z,congruent,,,,,0,0,0,0,0,11,11,22,,,137.13218522071838,None,z,1,0.48247408866882324,137.13218522071838,None,136.65803599357605,137.1913411617279,,,,,,,137.68062615394592,None,137.66242964267732,None,,,0001,01,sitting,2021_Aug_09_1500,stroop,2021.2.0,59.963515545922945,
XXX,green,m,neutral,,,,,0,0,0,0,0,12,12,1,,,139.71557211875916,None,m,1,0.28307485580444336,139.71557211875916,None,139.22275400161743,139.77805709838867,,,,,,,140.06860899925232,None,140.05064756870271,140.57732820510864,,,0001,01,sitting,2021_Aug_09_1500,stroop,2021.2.0,59.963515545922945,
red,red,z,congruent,,,,,0,0,0,0,0,13,13,20,,,142.11175417900085,None,z,1,0.2548789978027344,142.11175417900085,None,141.61921906471252,142.17422699928284,,,,,,,142.42036414146423,None,142.40249044895174,142.9244830608368,,,0001,01,sitting,2021_Aug_09_1500,stroop,2021.2.0,59.963515545922945,
red,green,m,incongruent,,,,,0,0,0,0,0,14,14,31,,,144.4503300189972,None,m,1,0.2840909957885742,144.4503300189972,None,143.96680212020874,144.51280117034912,,,,,,,144.78397417068481,None,144.77247149944307,145.29338312149048,,,0001,01,sitting,2021_Aug_09_1500,stroop,2021.2.0,59.963515545922945,
red,red,z,congruent,,,,,0,0,0,0,0,15,15,32,,,146.80430006980896,None,z,1,0.10619807243347168,146.80430006980896,None,146.321298122406,146.86466217041016,,,,,,,146.9710030555725,None,146.95697553157808,None,,,0001,01,sitting,2021_Aug_09_1500,stroop,2021.2.0,59.963515545922945,
XXXXX,red,z,neutral,,,,,0,0,0,0,0,16,16,14,,,149.01012110710144,None,m,0,0.23658394813537598,149.01012110710144,None,148.51761507987976,149.0726330280304,,,,,,,149.31844210624695,None,149.30066545009615,None,,,0001,01,sitting,2021_Aug_09_1500,stroop,2021.2.0,59.963515545922945,
XXX,green,m,neutral,,,,,0,0,0,0,0,17,17,25,,,151.3695411682129,None,m,1,0.4211759567260742,151.3695411682129,None,150.87718510627747,151.4318652153015,,,,,,,151.8560721874237,None,151.83856446743013,None,,,0001,01,sitting,2021_Aug_09_1500,stroop,2021.2.0,59.963515545922945,
red,red,z,congruent,,,,,0,0,0,0,0,18,18,10,,,153.88315415382385,None,z,1,0.29147791862487793,153.88315415382385,None,153.3905110359192,153.94555521011353,,,,,,,154.2368140220642,None,154.21893866062166,None,,,0001,01,sitting,2021_Aug_09_1500,stroop,2021.2.0,59.963515545922945,
red,red,z,congruent,,,,,0,0,0,0,0,19,19,8,,,156.26467418670654,None,z,1,0.4380209445953369,156.26467418670654,None,155.7723400592804,156.32702016830444,,,,,,,156.7938301563263,None,156.7787914991379,157.3049430847168,,,0001,01,sitting,2021_Aug_09_1500,stroop,2021.2.0,59.963515545922945,
XXX,red,z,neutral,,,,,0,0,0,0,0,20,20,12,,,158.84536600112915,None,z,1,0.35331106185913086,158.84536600112915,None,158.3525731563568,158.9077980518341,,,,,,,159.28856801986694,None,159.27077658176424,None,,,0001,01,sitting,2021_Aug_09_1500,stroop,2021.2.0,59.963515545922945,
green,red,z,incongruent,,,,,0,0,0,0,0,21,21,30,,,161.32655715942383,None,m,0,0.30408692359924316,161.32655715942383,None,160.83297204971313,161.38891911506653,,,,,,,161.7242660522461,None,161.70653564929964,None,,,0001,01,sitting,2021_Aug_09_1500,stroop,2021.2.0,59.963515545922945,
green,red,z,incongruent,,,,,0,0,0,0,0,22,22,6,,,163.7538731098175,None,z,1,0.38882994651794434,163.7538731098175,None,163.26122999191284,163.81629419326782,,,,,,,164.19605612754822,None,164.1783116579056,None,,,0001,01,sitting,2021_Aug_09_1500,stroop,2021.2.0,59.963515545922945,
green,red,z,incongruent,,,,,0,0,0,0,0,23,23,28,,,166.22603917121887,None,z,1,0.30049920082092285,166.22603917121887,None,165.73416709899902,166.2852442264557,,,,,,,166.6045320034027,None,166.5870304822922,None,,,0001,01,sitting,2021_Aug_09_1500,stroop,2021.2.0,59.963515545922945,
green,green,m,congruent,,,,,0,0,0,0,0,24,24,21,,,168.61654114723206,None,m,1,0.40589189529418945,168.61654114723206,None,168.14258003234863,168.6755290031433,,,,,,,169.0731852054596,None,169.06138260364534,None,,,0001,01,sitting,2021_Aug_09_1500,stroop,2021.2.0,59.963515545922945,
green,red,z,incongruent,,,,,0,0,0,0,0,25,25,4,,,171.09783506393433,None,z,1,0.4369208812713623,171.09783506393433,None,170.60583019256592,171.16040110588074,,,,,,,171.6300711631775,None,171.61236245632173,None,,,0001,01,sitting,2021_Aug_09_1500,stroop,2021.2.0,59.963515545922945,
red,green,m,incongruent,,,,,0,0,0,0,0,26,26,29,,,173.68304800987244,None,m,1,0.5877211093902588,173.68304800987244,None,173.1895670890808,173.74540305137634,,,,,,,174.34909319877625,None,174.33139545917513,None,,,0001,01,sitting,2021_Aug_09_1500,stroop,2021.2.0,59.963515545922945,
red,red,z,congruent,,,,,0,0,0,0,0,27,27,34,,,176.38888120651245,None,z,1,0.5698280334472656,176.38888120651245,None,175.8962380886078,176.45129013061523,,,,,,,177.05483603477478,None,177.03713352680208,None,,,0001,01,sitting,2021_Aug_09_1500,stroop,2021.2.0,59.963515545922945,
red,green,m,incongruent,,,,,0,0,0,0,0,28,28,17,,,179.0814871788025,None,m,1,0.37342405319213867,179.0814871788025,None,178.58893299102783,179.14370703697205,,,,,,,179.5243821144104,None,179.50673253536226,None,,,0001,01,sitting,2021_Aug_09_1500,stroop,2021.2.0,59.963515545922945,
green,green,m,congruent,,,,,0,0,0,0,0,29,29,23,,,181.55142211914062,None,m,1,0.4793848991394043,181.55142211914062,None,181.06049799919128,181.61337900161743,,,,,,,182.08306121826172,None,182.06524856090547,None,,,0001,01,sitting,2021_Aug_09_1500,stroop,2021.2.0,59.963515545922945,
XXXXX,red,z,neutral,,,,,0,0,0,0,0,30,30,26,,,184.11457204818726,None,z,1,0.5084071159362793,184.11457204818726,None,183.62259221076965,184.17686820030212,,,,,,,184.69165301322937,None,184.67382557392122,None,,,0001,01,sitting,2021_Aug_09_1500,stroop,2021.2.0,59.963515545922945,
XXXXX,green,m,neutral,,,,,0,0,0,0,0,31,31,15,,,186.71897411346436,None,z,0,0.41593313217163086,186.71897411346436,None,186.22512912750244,186.7815020084381,,,,,,,187.2074019908905,None,187.18908865451814,None,,,0001,01,sitting,2021_Aug_09_1500,stroop,2021.2.0,59.963515545922945,
green,green,m,congruent,,,,,0,0,0,0,0,32,32,9,,,189.2375931739807,None,m,1,0.6011719703674316,189.2375931739807,None,188.74505400657654,189.29991102218628,,,,,,,189.89425420761108,None,189.876437497139,None,,,0001,01,sitting,2021_Aug_09_1500,stroop,2021.2.0,59.963515545922945,
red,green,m,incongruent,,,,,0,0,0,0,0,33,33,7,,,191.92490100860596,None,m,1,0.36190104484558105,191.92490100860596,None,191.43704104423523,191.98733115196228,,,,,,,192.3671910762787,None,192.34960753917696,None,,,0001,01,sitting,2021_Aug_09_1500,stroop,2021.2.0,59.963515545922945,
red,green,m,incongruent,,,,,0,0,0,0,0,34,34,19,,,194.3921980857849,None,m,1,0.34260082244873047,194.3921980857849,None,193.90085315704346,194.4544801712036,,,,,,,194.79064321517944,None,194.77255947589876,None,,,0001,01,sitting,2021_Aug_09_1500,stroop,2021.2.0,59.963515545922945,
XXX,red,z,neutral,,,,,0,0,0,0,0,35,35,24,,,196.79348921775818,None,z,1,0.389113187789917,196.79348921775818,None,196.32033109664917,196.85271620750427,,,,,,,197.24923610687256,None,197.23764760494234,None,,,0001,01,sitting,2021_Aug_09_1500,stroop,2021.2.0,59.963515545922945,
,,,,,,,,0,0,0,0,,,,,,,,,,,,,,,,,,,,,,,,,,,,0001,01,sitting,2021_Aug_09_1500,stroop,2021.2.0,59.963515545922945,
XXX,green,m,neutral,,,,,1,0,1,0,0,0,0,25,,,203.35672521591187,None,m,1,0.5781071186065674,203.35672521591187,None,202.88330101966858,203.4158170223236,,,,,198.85422706604004,None,204.0005600452423,None,203.98129160404207,None,,,0001,01,sitting,2021_Aug_09_1500,stroop,2021.2.0,59.963515545922945,
red,green,m,incongruent,,,,,1,0,1,0,0,1,1,29,,,206.0256860256195,None,m,1,0.3733701705932617,206.0256860256195,None,205.53397703170776,206.08830404281616,,,,,,,206.46540307998657,None,206.45043165683748,None,,,0001,01,sitting,2021_Aug_09_1500,stroop,2021.2.0,59.963515545922945,
green,red,z,incongruent,,,,,1,0,1,0,0,2,2,28,,,208.50161600112915,None,z,1,0.32935094833374023,208.50161600112915,None,208.008465051651,208.56424117088318,,,,,,,208.89928722381592,None,208.88169367313387,None,,,0001,01,sitting,2021_Aug_09_1500,stroop,2021.2.0,59.963515545922945,
green,red,z,incongruent,,,,,1,0,1,0,0,3,3,6,,,210.9236512184143,None,z,1,0.33927297592163086,210.9236512184143,None,210.4321391582489,210.98609018325806,,,,,,,211.32161712646484,None,211.3038695573807,211.83324003219604,,,0001,01,sitting,2021_Aug_09_1500,stroop,2021.2.0,59.963515545922945,
red,red,z,congruent,,,,,1,0,1,0,0,4,4,32,,,213.37497520446777,None,z,1,0.31989288330078125,213.37497520446777,None,212.88200616836548,213.4373800754547,,,,,,,213.77306199073792,None,213.75557048320772,None,,,0001,01,sitting,2021_Aug_09_1500,stroop,2021.2.0,59.963515545922945,
XXX,red,z,neutral,,,,,1,0,1,0,0,5,5,24,,,215.82167720794678,None,z,1,0.33722400665283203,215.82167720794678,None,215.3284420967102,215.88428711891174,,,,,,,216.21951603889465,None,216.20166165828707,None,,,0001,01,sitting,2021_Aug_09_1500,stroop,2021.2.0,59.963515545922945,
XXXXX,green,m,neutral,,,,,1,0,1,0,0,6,6,27,,,218.24541401863098,None,m,1,0.2494211196899414,218.24541401863098,None,217.76861906051636,218.30664205551147,,,,,,,218.54650020599365,None,218.5308974504471,None,,,0001,01,sitting,2021_Aug_09_1500,stroop,2021.2.0,59.963515545922945,
green,green,m,congruent,,,,,1,0,1,0,0,7,7,11,,,220.5744071006775,None,m,1,0.3365600109100342,220.5744071006775,None,220.08146810531616,220.636785030365,,,,,,,220.9728970527649,None,220.95500357151033,None,,,0001,01,sitting,2021_Aug_09_1500,stroop,2021.2.0,59.963515545922945,
red,red,z,congruent,,,,,1,0,1,0,0,8,8,10,,,222.99278903007507,None,m,0,0.43012499809265137,222.99278903007507,None,222.51075720787048,223.05537700653076,,,,,,,223.48117399215698,None,223.4630344629288,None,,,0001,01,sitting,2021_Aug_09_1500,stroop,2021.2.0,59.963515545922945,
green,red,z,incongruent,,,,,1,0,1,0,0,9,9,16,,,225.5073070526123,None,z,1,0.3796529769897461,225.5073070526123,None,225.02134203910828,225.57016110420227,,,,,,,225.95095920562744,None,225.93305547237398,None,,,0001,01,sitting,2021_Aug_09_1500,stroop,2021.2.0,59.963515545922945,
red,green,m,incongruent,,,,,1,0,1,0,0,10,10,31,,,227.9879970550537,None,m,1,0.33109402656555176,227.9879970550537,None,227.49434399604797,228.05044102668762,,,,,,,228.38671016693115,None,228.36855156421663,None,,,0001,01,sitting,2021_Aug_09_1500,stroop,2021.2.0,59.963515545922945,
red,green,m,incongruent,,,,,1,0,1,0,0,11,11,7,,,230.4305181503296,None,m,1,0.48033714294433594,230.4305181503296,None,229.93781399726868,230.49286222457886,,,,,,,230.98278903961182,None,230.971346449852,None,,,0001,01,sitting,2021_Aug_09_1500,stroop,2021.2.0,59.963515545922945,
red,red,z,congruent,,,,,1,0,1,0,0,12,12,20,,,233.0131552219391,None,z,1,0.5697650909423828,233.0131552219391,None,232.52103519439697,233.07567405700684,,,,,,,233.67902207374573,None,233.6610735177994,None,,,0001,01,sitting,2021_Aug_09_1500,stroop,2021.2.0,59.963515545922945,
XXX,red,z,neutral,,,,,1,0,1,0,0,13,13,12,,,235.71617102622986,None,z,1,0.2828857898712158,235.71617102622986,None,235.22307801246643,235.7786831855774,,,,,,,236.07025408744812,None,236.05193765163423,236.57880902290344,,,0001,01,sitting,2021_Aug_09_1500,stroop,2021.2.0,59.963515545922945,
XXXXX,red,z,neutral,,,,,1,0,1,0,0,14,14,2,,,238.11626601219177,None,z,1,0.2989068031311035,238.11626601219177,None,237.62396717071533,238.17873907089233,,,,,,,238.46979308128357,None,238.45188767910005,238.9672770500183,,,0001,01,sitting,2021_Aug_09_1500,stroop,2021.2.0,59.963515545922945,
XXX,green,m,neutral,,,,,1,0,1,0,0,15,15,13,,,240.47954106330872,None,m,1,0.3673710823059082,240.47954106330872,None,240.0045850276947,240.53863310813904,,,,,,,240.89405012130737,None,240.88236553668978,241.3998281955719,,,0001,01,sitting,2021_Aug_09_1500,stroop,2021.2.0,59.963515545922945,
XXX,green,m,neutral,,,,,1,0,1,0,0,16,16,1,,,242.9234070777893,None,m,1,0.38744401931762695,242.9234070777893,None,242.43587112426758,242.98354315757751,,,,,,,243.38857412338257,None,243.37533147335054,243.89663314819336,,,0001,01,sitting,2021_Aug_09_1500,stroop,2021.2.0,59.963515545922945,
red,green,m,incongruent,,,,,1,0,1,0,0,17,17,5,,,245.42572116851807,None,z,0,0.8132719993591309,245.42572116851807,None,244.93249821662903,245.4881980419159,,,,,,,246.31615209579468,None,246.29830868244173,None,,,0001,01,sitting,2021_Aug_09_1500,stroop,2021.2.0,59.963515545922945,
XXXXX,red,z,neutral,,,,,1,0,1,0,0,18,18,26,,,248.364981174469,None,z,1,0.33805203437805176,248.364981174469,None,247.87147521972656,248.4272780418396,,,,,,,248.7627580165863,None,248.74490458965303,None,,,0001,01,sitting,2021_Aug_09_1500,stroop,2021.2.0,59.963515545922945,
green,green,m,congruent,,,,,1,0,1,0,0,19,19,9,,,250.78979802131653,None,m,1,0.36133480072021484,250.78979802131653,None,250.3051872253418,250.85236310958862,,,,,,,251.22235321998596,None,251.2043696165085,251.72668313980103,,,0001,01,sitting,2021_Aug_09_1500,stroop,2021.2.0,59.963515545922945,
green,green,m,congruent,,,,,1,0,1,0,0,20,20,21,,,253.2532660961151,None,m,1,0.3138089179992676,253.2532660961151,None,252.76119017601013,253.3155860900879,,,,,,,253.65109610557556,None,253.63351161479952,None,,,0001,01,sitting,2021_Aug_09_1500,stroop,2021.2.0,59.963515545922945,
red,green,m,incongruent,,,,,1,0,1,0,0,21,21,19,,,255.68511700630188,None,m,1,0.3140089511871338,255.68511700630188,None,255.19290208816528,255.74757719039917,,,,,,,256.0834090709686,None,256.06576855182647,None,,,0001,01,sitting,2021_Aug_09_1500,stroop,2021.2.0,59.963515545922945,
green,green,m,congruent,,,,,1,0,1,0,0,22,22,33,,,258.11708211898804,None,m,1,0.36194801330566406,258.11708211898804,None,257.6239101886749,258.17963004112244,,,,,,,258.5598142147064,None,258.5423224687576,None,,,0001,01,sitting,2021_Aug_09_1500,stroop,2021.2.0,59.963515545922945,
XXX,red,z,neutral,,,,,1,0,1,0,0,23,23,0,,,260.57061219215393,None,z,1,0.4205808639526367,260.57061219215393,None,260.09655714035034,260.6298761367798,,,,,,,261.0550742149353,None,261.03711063861846,None,,,0001,01,sitting,2021_Aug_09_1500,stroop,2021.2.0,59.963515545922945,
red,red,z,congruent,,,,,1,0,1,0,0,24,24,22,,,263.0868351459503,None,z,1,0.4163510799407959,263.0868351459503,None,262.6026542186737,263.149295091629,,,,,,,263.574520111084,None,263.5563746213913,None,,,0001,01,sitting,2021_Aug_09_1500,stroop,2021.2.0,59.963515545922945,
green,green,m,congruent,,,,,1,0,1,0,0,25,25,35,,,265.60337114334106,None,m,1,0.395751953125,265.60337114334106,None,265.11111211776733,265.6659240722656,,,,,,,266.09077620506287,None,266.0731416463852,None,,,0001,01,sitting,2021_Aug_09_1500,stroop,2021.2.0,59.963515545922945,
red,red,z,congruent,,,,,1,0,1,0,0,26,26,34,,,268.103746175766,None,z,1,0.6473369598388672,268.103746175766,None,267.6296000480652,268.1652112007141,,,,,,,268.8142890930176,None,268.79603345394133,269.32674503326416,,,0001,01,sitting,2021_Aug_09_1500,stroop,2021.2.0,59.963515545922945,
XXXXX,green,m,neutral,,,,,1,0,1,0,0,27,27,15,,,270.8674771785736,None,m,1,0.5078179836273193,270.8674771785736,None,270.3750581741333,270.92996406555176,,,,,,,271.4444971084595,None,271.4264815568924,None,,,0001,01,sitting,2021_Aug_09_1500,stroop,2021.2.0,59.963515545922945,
green,red,z,incongruent,,,,,1,0,1,0,0,28,28,30,,,273.4937970638275,None,z,1,0.4733560085296631,273.4937970638275,None,273.0014669895172,273.55632305145264,,,,,,,274.026242017746,None,274.008291554451,274.5319712162018,,,0001,01,sitting,2021_Aug_09_1500,stroop,2021.2.0,59.963515545922945,
XXXXX,red,z,neutral,,,,,1,0,1,0,0,29,29,14,,,276.05701208114624,None,z,1,0.45425891876220703,276.05701208114624,None,275.5691030025482,276.11946511268616,,,,,,,276.5889480113983,None,276.5715034723282,None,,,0001,01,sitting,2021_Aug_09_1500,stroop,2021.2.0,59.963515545922945,
red,red,z,congruent,,,,,1,0,1,0,0,30,30,8,,,278.59231305122375,None,z,1,0.3345019817352295,278.59231305122375,None,278.11843514442444,278.65155005455017,,,,,,,279.00657200813293,None,278.99509556293486,None,,,0001,01,sitting,2021_Aug_09_1500,stroop,2021.2.0,59.963515545922945,
green,red,z,incongruent,,,,,1,0,1,0,0,31,31,4,,,281.0529570579529,None,z,1,0.32219910621643066,281.0529570579529,None,280.5605490207672,281.1153230667114,,,,,,,281.45064520835876,None,281.4333356142044,281.9544680118561,,,0001,01,sitting,2021_Aug_09_1500,stroop,2021.2.0,59.963515545922945,
XXXXX,green,m,neutral,,,,,1,0,1,0,0,32,32,3,,,283.46736121177673,None,m,1,0.30776381492614746,283.46736121177673,None,282.98966813087463,283.5297441482544,,,,,,,283.8658890724182,None,283.8481374502182,None,,,0001,01,sitting,2021_Aug_09_1500,stroop,2021.2.0,59.963515545922945,
green,red,z,incongruent,,,,,1,0,1,0,0,33,33,18,,,285.90345001220703,None,z,1,0.4477090835571289,285.90345001220703,None,285.4110162258148,285.96586298942566,,,,,,,286.43563199043274,None,286.4181636095047,None,,,0001,01,sitting,2021_Aug_09_1500,stroop,2021.2.0,59.963515545922945,
green,green,m,congruent,,,,,1,0,1,0,0,34,34,23,,,288.4639310836792,None,m,1,0.3833010196685791,288.4639310836792,None,287.97670912742615,288.52514719963074,,,,,,,288.9416720867157,None,288.92391259670256,None,,,0001,01,sitting,2021_Aug_09_1500,stroop,2021.2.0,59.963515545922945,
red,green,m,incongruent,,,,,1,0,1,0,0,35,35,17,,,290.97159004211426,None,m,1,0.45165300369262695,290.97159004211426,None,290.47870922088623,291.0337860584259,,,,,,,291.5035901069641,None,291.48603947162627,None,,,0001,01,sitting,2021_Aug_09_1500,stroop,2021.2.0,59.963515545922945,
,,,,,,,,1,0,1,0,,,,,,,,,,,,,,,,,,,,,,,,,,,,0001,01,sitting,2021_Aug_09_1500,stroop,2021.2.0,59.963515545922945,
,,,,,,,,,,,,,,,,,,,,,,,,,,,,,,,,,,,,,293.1826331615448,None,,,,,,,,
