text,letterColor,correctAnswer,congruent,practice.thisRepN,practice.thisTrialN,practice.thisN,practice.thisIndex,trial_loop.thisRepN,trial_loop.thisTrialN,trial_loop.thisN,trial_loop.thisIndex,trials.thisRepN,trials.thisTrialN,trials.thisN,trials.thisIndex,instr1.started,instr1.stopped,word.started,word.stopped,resp.keys,resp.corr,resp.rt,resp.started,resp.stopped,fixation.started,fixation.stopped,feedback_2.started,feedback_2.stopped,sound_1.started,sound_1.stopped,instrText.started,instrText.stopped,feedback_3.started,feedback_3.stopped,sound_2.started,sound_2.stopped,thanksText.started,thanksText.stopped,participant,session,posture,date,expName,psychopyVersion,frameRate,
green,red,z,incongruent,0,0,0,6,,,,,,,,,13.260350942611694,None,14.997061014175415,None,m,0,0.8170549869537354,14.997061014175415,None,14.512409925460815,15.03012490272522,15.891664028167725,None,15.882466578483582,16.401819944381714,,,,,,,,,0001,01,standing,2021_Aug_09_1506,stroop,2021.2.0,59.92513472891343,
red,green,m,incongruent,0,1,1,19,,,,,,,,,,,17.923719882965088,None,m,1,0.5785119533538818,17.923719882965088,None,17.42970299720764,17.971303939819336,18.55744504928589,None,18.54393961429596,None,,,,,,,,,0001,01,standing,2021_Aug_09_1506,stroop,2021.2.0,59.92513472891343,
XXX,red,z,neutral,0,2,2,24,,,,,,,,,,,20.57758402824402,None,z,1,0.37291693687438965,20.57758402824402,None,20.084084033966064,20.625104904174805,21.032604932785034,None,21.02331259250641,None,,,,,,,,,0001,01,standing,2021_Aug_09_1506,stroop,2021.2.0,59.92513472891343,
red,green,m,incongruent,0,3,3,17,,,,,,,,,,,23.062939882278442,None,m,1,0.46323108673095703,23.062939882278442,None,22.568891048431396,23.12535285949707,23.607969999313354,None,23.583077692985537,24.112376928329468,,,,,,,,,0001,01,standing,2021_Aug_09_1506,stroop,2021.2.0,59.92513472891343,
green,green,m,congruent,0,4,4,21,,,,,,,,,,,25.65507984161377,None,m,1,0.39927077293395996,25.65507984161377,None,25.16075301170349,25.71754503250122,26.14826202392578,None,26.12486960887909,26.651516914367676,,,,,,,,,0001,01,standing,2021_Aug_09_1506,stroop,2021.2.0,59.92513472891343,
XXX,green,m,neutral,0,5,5,13,,,,,,,,,,,28.19028902053833,None,m,1,0.34408998489379883,28.19028902053833,None,27.697521924972534,28.252896070480347,28.59447193145752,None,28.57054355144501,29.104835987091064,,,,,,,,,0001,01,standing,2021_Aug_09_1506,stroop,2021.2.0,59.92513472891343,
green,red,z,incongruent,0,6,6,18,,,,,,,,,,,30.646230936050415,None,z,1,0.48003697395324707,30.646230936050415,None,30.151180028915405,30.708586931228638,31.185407876968384,None,31.160969519615175,None,,,,,,,,,0001,01,standing,2021_Aug_09_1506,stroop,2021.2.0,59.92513472891343,
red,red,z,congruent,0,7,7,20,,,,,,,,,,,33.224848985672,None,z,1,0.47736692428588867,33.224848985672,None,32.741108894348145,33.282328844070435,33.79904890060425,None,33.77536251544952,34.31006693840027,,,,,,,,,0001,01,standing,2021_Aug_09_1506,stroop,2021.2.0,59.92513472891343,
green,green,m,congruent,0,8,8,11,,,,,,,,,,,35.852288007736206,None,m,1,0.3619818687438965,35.852288007736206,None,35.35903787612915,35.914708852767944,36.30215001106262,None,36.277683520317076,36.806275844573975,,,,,,,,,0001,01,standing,2021_Aug_09_1506,stroop,2021.2.0,59.92513472891343,
XXXXX,green,m,neutral,0,9,9,3,,,,,,,,,,,38.346407890319824,None,m,1,0.5398521423339844,38.346407890319824,None,37.85324501991272,38.4089720249176,38.974851846694946,None,38.951379561424254,39.47119188308716,,,,,,,,,0001,01,standing,2021_Aug_09_1506,stroop,2021.2.0,59.92513472891343,
red,green,m,incongruent,0,10,10,7,,,,,,,,,,,40.987303018569946,None,m,1,0.5868690013885498,40.987303018569946,None,40.507282972335815,41.04686188697815,41.66218400001526,None,41.647416615486144,None,,,,,,,,,0001,01,standing,2021_Aug_09_1506,stroop,2021.2.0,59.92513472891343,
XXXXX,red,z,neutral,0,11,11,14,,,,,,,,,,,43.69688606262207,None,z,1,0.565518856048584,43.69688606262207,None,43.20422697067261,43.75926399230957,44.32449293136597,None,44.300736689567564,44.82728099822998,,,,,,,,,0001,01,standing,2021_Aug_09_1506,stroop,2021.2.0,59.92513472891343,
green,green,m,congruent,0,12,12,35,,,,,,,,,,,46.3781259059906,None,m,1,0.6202399730682373,46.3781259059906,None,45.884543895721436,46.4405779838562,47.08257985115051,None,47.064827704429625,None,,,,,,,,,0001,01,standing,2021_Aug_09_1506,stroop,2021.2.0,59.92513472891343,
green,red,z,incongruent,0,13,13,16,,,,,,,,,,,49.11254286766052,None,z,1,0.5897250175476074,49.11254286766052,None,48.62639093399048,49.17547798156738,49.79000687599182,None,49.76563265323639,None,,,,,,,,,0001,01,standing,2021_Aug_09_1506,stroop,2021.2.0,59.92513472891343,
green,green,m,congruent,0,14,14,23,,,,,,,,,,,51.82499384880066,None,m,1,0.5491750240325928,51.82499384880066,None,51.33224296569824,51.887343883514404,52.45384097099304,None,52.429626727104186,None,,,,,,,,,0001,01,standing,2021_Aug_09_1506,stroop,2021.2.0,59.92513472891343,
red,red,z,congruent,0,15,15,22,,,,,,,,,,,54.49706697463989,None,z,1,0.5972900390625,54.49706697463989,None,54.00209188461304,54.55968403816223,55.170044898986816,None,55.146163725852965,None,,,,,,,,,0001,01,standing,2021_Aug_09_1506,stroop,2021.2.0,59.92513472891343,
XXXXX,green,m,neutral,0,16,16,15,,,,,,,,,,,57.207257986068726,None,m,1,0.41504788398742676,57.207257986068726,None,56.71441602706909,57.26969289779663,57.70106506347656,None,57.67663767337799,58.20335388183594,,,,,,,,,0001,01,standing,2021_Aug_09_1506,stroop,2021.2.0,59.92513472891343,
green,red,z,incongruent,0,17,17,4,,,,,,,,,,,59.72552704811096,None,z,1,0.5367569923400879,59.72552704811096,None,59.24657988548279,59.78796195983887,60.35304093360901,None,60.32967569828033,None,,,,,,,,,0001,01,standing,2021_Aug_09_1506,stroop,2021.2.0,59.92513472891343,
XXX,red,z,neutral,0,18,18,12,,,,,,,,,,,62.39698100090027,None,z,1,0.6334919929504395,62.39698100090027,None,61.90325903892517,62.45962905883789,63.113961935043335,None,63.09048154354095,63.6222870349884,,,,,,,,,0001,01,standing,2021_Aug_09_1506,stroop,2021.2.0,59.92513472891343,
red,green,m,incongruent,0,19,19,29,,,,,,,,,,,65.14245986938477,None,m,1,0.5595769882202148,65.14245986938477,None,64.66722202301025,65.20341396331787,65.75793600082397,None,65.74314262866973,None,,,,,,,,,0001,01,standing,2021_Aug_09_1506,stroop,2021.2.0,59.92513472891343,
XXXXX,red,z,neutral,0,20,20,2,,,,,,,,,,,67.77942895889282,None,z,1,0.6750009059906006,67.77942895889282,None,67.30546593666077,67.83850502967834,68.53006505966187,None,68.50656654834746,69.0402820110321,,,,,,,,,0001,01,standing,2021_Aug_09_1506,stroop,2021.2.0,59.92513472891343,
green,red,z,incongruent,0,21,21,30,,,,,,,,,,,70.55584788322449,None,z,1,0.9065380096435547,70.55584788322449,None,70.08135986328125,70.61510992050171,71.55291795730591,None,71.52977468967437,72.04892587661743,,,,,,,,,0001,01,standing,2021_Aug_09_1506,stroop,2021.2.0,59.92513472891343,
green,green,m,congruent,0,22,22,33,,,,,,,,,,,73.56363892555237,None,m,1,0.37850499153137207,73.56363892555237,None,73.08426094055176,73.62312293052673,74.02659487724304,None,74.01156165599822,None,,,,,,,,,0001,01,standing,2021_Aug_09_1506,stroop,2021.2.0,59.92513472891343,
XXX,green,m,neutral,0,23,23,1,,,,,,,,,,,76.05718398094177,None,m,1,0.42921900749206543,76.05718398094177,None,75.58181500434875,76.1163899898529,76.58537292480469,None,76.56200959682464,77.08370590209961,,,,,,,,,0001,01,standing,2021_Aug_09_1506,stroop,2021.2.0,59.92513472891343,
red,red,z,congruent,0,24,24,32,,,,,,,,,,,78.62104487419128,None,z,1,0.5053691864013672,78.62104487419128,None,78.12944984436035,78.68361186981201,79.20402503013611,None,79.18024971485137,None,,,,,,,,,0001,01,standing,2021_Aug_09_1506,stroop,2021.2.0,59.92513472891343,
XXX,red,z,neutral,0,25,25,0,,,,,,,,,,,81.23836994171143,None,z,1,0.6238420009613037,81.23836994171143,None,80.74552392959595,81.30094194412231,81.9977798461914,None,81.97772626876831,None,,,,,,,,,0001,01,standing,2021_Aug_09_1506,stroop,2021.2.0,59.92513472891343,
red,red,z,congruent,0,26,26,34,,,,,,,,,,,84.01719784736633,None,z,1,0.45293402671813965,84.01719784736633,None,83.53064393997192,84.07725405693054,84.52715492248535,None,84.5110826730728,None,,,,,,,,,0001,01,standing,2021_Aug_09_1506,stroop,2021.2.0,59.92513472891343,
red,green,m,incongruent,0,27,27,5,,,,,,,,,,,86.57155799865723,None,m,1,0.4268629550933838,86.57155799865723,None,86.0785300731659,86.63389301300049,87.06448006629944,None,87.04095771312713,None,,,,,,,,,0001,01,standing,2021_Aug_09_1506,stroop,2021.2.0,59.92513472891343,
green,red,z,incongruent,0,28,28,28,,,,,,,,,,,89.11197090148926,None,z,1,0.38274717330932617,89.11197090148926,None,88.61942386627197,89.17455697059631,89.5600118637085,None,89.53636362552642,None,,,,,,,,,0001,01,standing,2021_Aug_09_1506,stroop,2021.2.0,59.92513472891343,
XXXXX,green,m,neutral,0,29,29,27,,,,,,,,,,,91.60319900512695,None,m,1,0.4669339656829834,91.60319900512695,None,91.11074900627136,91.66559290885925,92.12905097007751,None,92.1150787115097,None,,,,,,,,,0001,01,standing,2021_Aug_09_1506,stroop,2021.2.0,59.92513472891343,
red,green,m,incongruent,0,30,30,31,,,,,,,,,,,94.15363097190857,None,m,1,0.46071290969848633,94.15363097190857,None,93.67944407463074,94.21270489692688,94.6824140548706,None,94.65895655155181,None,,,,,,,,,0001,01,standing,2021_Aug_09_1506,stroop,2021.2.0,59.92513472891343,
XXXXX,red,z,neutral,0,31,31,26,,,,,,,,,,,96.72490000724792,None,z,1,0.46554088592529297,96.72490000724792,None,96.23232984542847,96.78724789619446,97.26253700256348,None,97.23912050724029,None,,,,,,,,,0001,01,standing,2021_Aug_09_1506,stroop,2021.2.0,59.92513472891343,
green,green,m,congruent,0,32,32,9,,,,,,,,,,,99.30869483947754,None,m,1,0.4577298164367676,99.30869483947754,None,98.81558299064636,99.37111186981201,99.84690189361572,None,99.82340672016143,100.35830187797546,,,,,,,,,0001,01,standing,2021_Aug_09_1506,stroop,2021.2.0,59.92513472891343,
XXX,green,m,neutral,0,33,33,25,,,,,,,,,,,101.88987684249878,None,m,1,0.45255112648010254,101.88987684249878,None,101.39722800254822,101.95230793952942,102.42711997032166,None,102.4039654970169,None,,,,,,,,,0001,01,standing,2021_Aug_09_1506,stroop,2021.2.0,59.92513472891343,
red,red,z,congruent,0,34,34,10,,,,,,,,,,,104.46013402938843,None,z,1,0.5380990505218506,104.46013402938843,None,103.96737885475159,104.5226399898529,105.05452299118042,None,105.04046466350555,None,,,,,,,,,0001,01,standing,2021_Aug_09_1506,stroop,2021.2.0,59.92513472891343,
red,red,z,congruent,0,35,35,8,,,,,,,,,,,107.07437705993652,None,m,0,0.41983795166015625,107.07437705993652,None,106.60284304618835,107.13393306732178,107.57976794242859,None,107.5646054983139,108.08096885681152,,,,,,,,,0001,01,standing,2021_Aug_09_1506,stroop,2021.2.0,59.92513472891343,
XXX,red,z,neutral,,,,,0,0,0,0,0,0,0,12,,,111.20302605628967,None,z,1,0.5151312351226807,111.20302605628967,None,110.7133378982544,111.2622139453888,,,,,109.17373895645142,None,111.78638100624084,None,111.77414157390594,None,,,0001,01,standing,2021_Aug_09_1506,stroop,2021.2.0,59.92513472891343,
red,green,m,incongruent,,,,,0,0,0,0,0,1,1,7,,,113.79029393196106,None,m,1,0.34433507919311523,113.79029393196106,None,113.31574892997742,113.84959387779236,,,,,,,114.22974395751953,None,114.21186854839324,114.7359938621521,,,0001,01,standing,2021_Aug_09_1506,stroop,2021.2.0,59.92513472891343,
XXXXX,green,m,neutral,,,,,0,0,0,0,0,2,2,3,,,116.27958393096924,None,m,1,0.31884193420410156,116.27958393096924,None,115.7861099243164,116.34216690063477,,,,,,,116.6775369644165,None,116.65983655452727,None,,,0001,01,standing,2021_Aug_09_1506,stroop,2021.2.0,59.92513472891343,
green,green,m,congruent,,,,,0,0,0,0,0,3,3,23,,,118.70732688903809,None,m,1,0.3711700439453125,118.70732688903809,None,118.21436786651611,118.7698450088501,,,,,,,119.15004801750183,None,119.13204767704009,None,,,0001,01,standing,2021_Aug_09_1506,stroop,2021.2.0,59.92513472891343,
red,red,z,congruent,,,,,0,0,0,0,0,4,4,20,,,121.17121195793152,None,z,1,0.37133097648620605,121.17121195793152,None,120.69165396690369,121.23352384567261,,,,,,,121.61412906646729,None,121.59610059261321,None,,,0001,01,standing,2021_Aug_09_1506,stroop,2021.2.0,59.92513472891343,
XXXXX,green,m,neutral,,,,,0,0,0,0,0,5,5,27,,,123.6251380443573,None,m,1,0.4454209804534912,123.6251380443573,None,123.14990592002869,123.6844630241394,,,,,,,124.13710188865662,None,124.11936571598052,None,,,0001,01,standing,2021_Aug_09_1506,stroop,2021.2.0,59.92513472891343,
red,green,m,incongruent,,,,,0,0,0,0,0,6,6,29,,,126.16979885101318,None,m,1,0.3646199703216553,126.16979885101318,None,125.67636585235596,126.23225998878479,,,,,,,126.61289596557617,None,126.59509851932525,None,,,0001,01,standing,2021_Aug_09_1506,stroop,2021.2.0,59.92513472891343,
XXX,red,z,neutral,,,,,0,0,0,0,0,7,7,24,,,128.66393184661865,None,z,1,0.33426690101623535,128.66393184661865,None,128.1713628768921,128.72644090652466,,,,,,,129.07266306877136,None,129.06116058826447,129.58502888679504,,,0001,01,standing,2021_Aug_09_1506,stroop,2021.2.0,59.92513472891343,
red,green,m,incongruent,,,,,0,0,0,0,0,8,8,17,,,131.11143803596497,None,m,1,0.31911492347717285,131.11143803596497,None,130.61828303337097,131.17383098602295,,,,,,,131.50957584381104,None,131.49188854694367,None,,,0001,01,standing,2021_Aug_09_1506,stroop,2021.2.0,59.92513472891343,
red,red,z,congruent,,,,,0,0,0,0,0,9,9,8,,,133.5403549671173,None,z,1,0.5301930904388428,133.5403549671173,None,133.04720187187195,133.6026840209961,,,,,,,134.16254591941833,None,134.14504053592682,None,,,0001,01,standing,2021_Aug_09_1506,stroop,2021.2.0,59.92513472891343,
green,red,z,incongruent,,,,,0,0,0,0,0,10,10,28,,,136.17309093475342,None,z,1,0.473283052444458,136.17309093475342,None,135.69915986061096,136.23224997520447,,,,,,,136.71335887908936,None,136.70159866809846,137.22318601608276,,,0001,01,standing,2021_Aug_09_1506,stroop,2021.2.0,59.92513472891343,
XXXXX,green,m,neutral,,,,,0,0,0,0,0,11,11,15,,,138.74202299118042,None,m,1,0.2566039562225342,138.74202299118042,None,138.24849605560303,138.80451893806458,,,,,,,139.05113697052002,None,139.0329015493393,None,,,0001,01,standing,2021_Aug_09_1506,stroop,2021.2.0,59.92513472891343,
green,green,m,congruent,,,,,0,0,0,0,0,12,12,33,,,141.08417201042175,None,m,1,0.3783259391784668,141.08417201042175,None,140.5913450717926,141.14692902565002,,,,,,,141.5272228717804,None,141.5090875864029,None,,,0001,01,standing,2021_Aug_09_1506,stroop,2021.2.0,59.92513472891343,
red,red,z,congruent,,,,,0,0,0,0,0,13,13,22,,,143.55899596214294,None,z,1,0.4155271053314209,143.55899596214294,None,143.06534504890442,143.6214919090271,,,,,,,144.0466878414154,None,144.0290374994278,None,,,0001,01,standing,2021_Aug_09_1506,stroop,2021.2.0,59.92513472891343,
red,green,m,incongruent,,,,,0,0,0,0,0,14,14,19,,,146.07524704933167,None,m,1,0.3472259044647217,146.07524704933167,None,145.58203601837158,146.1375470161438,,,,,,,146.51736783981323,None,146.5001685857773,None,,,0001,01,standing,2021_Aug_09_1506,stroop,2021.2.0,59.92513472891343,
XXX,green,m,neutral,,,,,0,0,0,0,0,15,15,1,,,148.57095384597778,None,m,1,0.347775936126709,148.57095384597778,None,148.07766389846802,148.63349294662476,,,,,,,149.0051748752594,None,148.98744657039643,149.51113390922546,,,0001,01,standing,2021_Aug_09_1506,stroop,2021.2.0,59.92513472891343,
XXX,red,z,neutral,,,,,0,0,0,0,0,16,16,0,,,151.04127192497253,None,z,1,0.2930629253387451,151.04127192497253,None,150.5570788383484,151.10031604766846,,,,,,,151.4130449295044,None,151.4015035867691,None,,,0001,01,standing,2021_Aug_09_1506,stroop,2021.2.0,59.92513472891343,
XXXXX,red,z,neutral,,,,,0,0,0,0,0,17,17,2,,,153.46399307250977,None,z,1,0.4626598358154297,153.46399307250977,None,152.97010898590088,153.5264060497284,,,,,,,153.99625897407532,None,153.978737616539,None,,,0001,01,standing,2021_Aug_09_1506,stroop,2021.2.0,59.92513472891343,
green,red,z,incongruent,,,,,0,0,0,0,0,18,18,18,,,156.0480580329895,None,z,1,0.3905448913574219,156.0480580329895,None,155.55560493469238,156.11061191558838,,,,,,,156.4883210659027,None,156.47368671894074,None,,,0001,01,standing,2021_Aug_09_1506,stroop,2021.2.0,59.92513472891343,
green,red,z,incongruent,,,,,0,0,0,0,0,19,19,16,,,158.52215790748596,None,z,1,0.5085620880126953,158.52215790748596,None,158.03031706809998,158.58449697494507,,,,,,,159.09787797927856,None,159.08018972873688,None,,,0001,01,standing,2021_Aug_09_1506,stroop,2021.2.0,59.92513472891343,
red,red,z,congruent,,,,,0,0,0,0,0,20,20,34,,,161.14987993240356,None,z,1,0.29674291610717773,161.14987993240356,None,160.65757989883423,161.21228003501892,,,,,,,161.50250697135925,None,161.48478558063508,None,,,0001,01,standing,2021_Aug_09_1506,stroop,2021.2.0,59.92513472891343,
XXX,green,m,neutral,,,,,0,0,0,0,0,21,21,13,,,163.5310549736023,None,m,1,0.3319361209869385,163.5310549736023,None,163.0453269481659,163.5902979373932,,,,,,,163.95711493492126,None,163.93859770298005,None,,,0001,01,standing,2021_Aug_09_1506,stroop,2021.2.0,59.92513472891343,
green,red,z,incongruent,,,,,0,0,0,0,0,22,22,30,,,165.98401999473572,None,z,1,0.358443021774292,165.98401999473572,None,165.49587988853455,166.043310880661,,,,,,,166.3980369567871,None,166.38639357089997,166.8976719379425,,,0001,01,standing,2021_Aug_09_1506,stroop,2021.2.0,59.92513472891343,
green,green,m,congruent,,,,,0,0,0,0,0,23,23,9,,,168.42055892944336,None,m,1,0.4500720500946045,168.42055892944336,None,167.94109392166138,168.48163390159607,,,,,,,168.93976187705994,None,168.9243366956711,None,,,0001,01,standing,2021_Aug_09_1506,stroop,2021.2.0,59.92513472891343,
XXXXX,red,z,neutral,,,,,0,0,0,0,0,24,24,26,,,170.95131397247314,None,z,1,0.3671000003814697,170.95131397247314,None,170.47695302963257,171.01045393943787,,,,,,,171.36794686317444,None,171.35361649990082,None,,,0001,01,standing,2021_Aug_09_1506,stroop,2021.2.0,59.92513472891343,
red,green,m,incongruent,,,,,0,0,0,0,0,25,25,31,,,173.39153790473938,None,m,1,0.4550461769104004,173.39153790473938,None,172.90646505355835,173.45391488075256,,,,,,,173.92382884025574,None,173.9062826871872,None,,,0001,01,standing,2021_Aug_09_1506,stroop,2021.2.0,59.92513472891343,
green,green,m,congruent,,,,,0,0,0,0,0,26,26,11,,,175.97464084625244,None,m,1,0.6398069858551025,175.97464084625244,None,175.48196697235107,176.0373818874359,,,,,,,176.67236804962158,None,176.66084554195405,177.17932987213135,,,0001,01,standing,2021_Aug_09_1506,stroop,2021.2.0,59.92513472891343,
red,red,z,congruent,,,,,0,0,0,0,0,27,27,10,,,178.7210409641266,None,z,1,0.27757811546325684,178.7210409641266,None,178.2273988723755,178.78358507156372,,,,,,,179.0749728679657,None,179.0570955514908,None,,,0001,01,standing,2021_Aug_09_1506,stroop,2021.2.0,59.92513472891343,
red,red,z,congruent,,,,,0,0,0,0,0,28,28,32,,,181.1024239063263,None,z,1,0.584226131439209,181.1024239063263,None,180.61002802848816,181.1650059223175,,,,,,,181.76951694488525,None,181.75213363170624,None,,,0001,01,standing,2021_Aug_09_1506,stroop,2021.2.0,59.92513472891343,
green,green,m,congruent,,,,,0,0,0,0,0,29,29,35,,,183.8065209388733,None,m,1,0.31226396560668945,183.8065209388733,None,183.31321787834167,183.86939692497253,,,,,,,184.20522499084473,None,184.1874265909195,None,,,0001,01,standing,2021_Aug_09_1506,stroop,2021.2.0,59.92513472891343,
XXXXX,red,z,neutral,,,,,0,0,0,0,0,30,30,14,,,186.23057198524475,None,z,1,0.41626405715942383,186.23057198524475,None,185.74137496948242,186.29095697402954,,,,,,,186.71557188034058,None,186.69752457141877,None,,,0001,01,standing,2021_Aug_09_1506,stroop,2021.2.0,59.92513472891343,
green,red,z,incongruent,,,,,0,0,0,0,0,31,31,6,,,188.7413239479065,None,z,1,0.481295108795166,188.7413239479065,None,188.25535607337952,188.8035569190979,,,,,,,189.31858897209167,None,189.30078961849213,None,,,0001,01,standing,2021_Aug_09_1506,stroop,2021.2.0,59.92513472891343,
green,red,z,incongruent,,,,,0,0,0,0,0,32,32,4,,,191.33718490600586,None,z,1,0.3493030071258545,191.33718490600586,None,190.85551285743713,191.39634704589844,,,,,,,191.75069093704224,None,191.73903753757477,192.26252603530884,,,0001,01,standing,2021_Aug_09_1506,stroop,2021.2.0,59.92513472891343,
green,green,m,congruent,,,,,0,0,0,0,0,33,33,21,,,193.77428698539734,None,m,1,0.40854692459106445,193.77428698539734,None,193.28197383880615,193.8368809223175,,,,,,,194.26170086860657,None,194.24426057338715,None,,,0001,01,standing,2021_Aug_09_1506,stroop,2021.2.0,59.92513472891343,
red,green,m,incongruent,,,,,0,0,0,0,0,34,34,5,,,196.30335783958435,None,m,1,0.4073011875152588,196.30335783958435,None,195.81314897537231,196.36251401901245,,,,,,,196.78467893600464,None,196.76652672290803,None,,,0001,01,standing,2021_Aug_09_1506,stroop,2021.2.0,59.92513472891343,
XXX,green,m,neutral,,,,,0,0,0,0,0,35,35,25,,,198.8256540298462,None,m,1,0.31702303886413574,198.8256540298462,None,198.3333010673523,198.88800191879272,,,,,,,199.22373485565186,None,199.2061045408249,None,,,0001,01,standing,2021_Aug_09_1506,stroop,2021.2.0,59.92513472891343,
,,,,,,,,0,0,0,0,,,,,,,,,,,,,,,,,,,,,,,,,,,,0001,01,standing,2021_Aug_09_1506,stroop,2021.2.0,59.92513472891343,
green,green,m,congruent,,,,,1,0,1,0,0,0,0,23,,,204.0822069644928,None,m,1,0.532243013381958,204.0822069644928,None,203.60939502716064,204.14141607284546,,,,,200.8414340019226,None,204.69839191436768,None,204.6862936258316,205.2121798992157,,,0001,01,standing,2021_Aug_09_1506,stroop,2021.2.0,59.92513472891343,
green,red,z,incongruent,,,,,1,0,1,0,0,1,1,18,,,206.7230989933014,None,m,0,0.2917439937591553,206.7230989933014,None,206.23111605644226,206.78530502319336,,,,,,,207.0755259990692,None,207.05773856639863,None,,,0001,01,standing,2021_Aug_09_1506,stroop,2021.2.0,59.92513472891343,
red,green,m,incongruent,,,,,1,0,1,0,0,2,2,5,,,209.10776591300964,None,m,1,0.4349079132080078,209.10776591300964,None,208.62268590927124,209.16788506507874,,,,,,,209.61427307128906,None,209.6012096643448,None,,,0001,01,standing,2021_Aug_09_1506,stroop,2021.2.0,59.92513472891343,
green,green,m,congruent,,,,,1,0,1,0,0,3,3,33,,,211.63757801055908,None,z,0,0.2729620933532715,211.63757801055908,None,211.14955496788025,211.69732403755188,,,,,,,211.97235584259033,None,211.95947172641755,None,,,0001,01,standing,2021_Aug_09_1506,stroop,2021.2.0,59.92513472891343,
XXX,green,m,neutral,,,,,1,0,1,0,0,4,4,13,,,214.00949096679688,None,m,1,0.413118839263916,214.00949096679688,None,213.5263969898224,214.07175302505493,,,,,,,214.49720287322998,None,214.47922971248627,None,,,0001,01,standing,2021_Aug_09_1506,stroop,2021.2.0,59.92513472891343,
green,green,m,congruent,,,,,1,0,1,0,0,5,5,35,,,216.51973605155945,None,m,1,0.36714792251586914,216.51973605155945,None,216.04652285575867,216.57897305488586,,,,,,,216.9481270313263,None,216.9299836397171,None,,,0001,01,standing,2021_Aug_09_1506,stroop,2021.2.0,59.92513472891343,
green,red,z,incongruent,,,,,1,0,1,0,0,6,6,30,,,218.97235107421875,None,z,1,0.2825779914855957,218.97235107421875,None,218.48821806907654,219.0329520702362,,,,,,,219.32392597198486,None,219.30632951259614,219.82376384735107,,,0001,01,standing,2021_Aug_09_1506,stroop,2021.2.0,59.92513472891343,
red,green,m,incongruent,,,,,1,0,1,0,0,7,7,7,,,221.3570899963379,None,m,1,0.34581995010375977,221.3570899963379,None,220.869530916214,221.41950607299805,,,,,,,221.75478601455688,None,221.73711850643159,None,,,0001,01,standing,2021_Aug_09_1506,stroop,2021.2.0,59.92513472891343,
XXXXX,red,z,neutral,,,,,1,0,1,0,0,8,8,2,,,223.79292392730713,None,z,1,0.2778441905975342,223.79292392730713,None,223.31012392044067,223.85540199279785,,,,,,,224.14690685272217,None,224.12892558574677,None,,,0001,01,standing,2021_Aug_09_1506,stroop,2021.2.0,59.92513472891343,
red,green,m,incongruent,,,,,1,0,1,0,0,9,9,19,,,226.1699879169464,None,m,1,0.3488731384277344,226.1699879169464,None,225.6800458431244,226.23222994804382,,,,,,,226.61282300949097,None,226.5952475309372,227.12188601493835,,,0001,01,standing,2021_Aug_09_1506,stroop,2021.2.0,59.92513472891343,
green,green,m,congruent,,,,,1,0,1,0,0,10,10,11,,,228.6666600704193,None,m,1,0.34813904762268066,228.6666600704193,None,228.17340302467346,228.72895693778992,,,,,,,229.10932993888855,None,229.09145858287812,None,,,0001,01,standing,2021_Aug_09_1506,stroop,2021.2.0,59.92513472891343,
red,red,z,congruent,,,,,1,0,1,0,0,11,11,20,,,231.1445279121399,None,z,1,0.36590003967285156,231.1445279121399,None,230.6544680595398,231.20396399497986,,,,,,,231.55875706672668,None,231.54691364765168,232.07051801681519,,,0001,01,standing,2021_Aug_09_1506,stroop,2021.2.0,59.92513472891343,
XXX,green,m,neutral,,,,,1,0,1,0,0,12,12,25,,,233.5810730457306,None,m,1,0.3936038017272949,233.5810730457306,None,233.10871195793152,233.64011597633362,,,,,,,234.0363109111786,None,234.02500655651093,234.54512786865234,,,0001,01,standing,2021_Aug_09_1506,stroop,2021.2.0,59.92513472891343,
XXXXX,red,z,neutral,,,,,1,0,1,0,0,13,13,26,,,236.06652188301086,None,z,1,0.4361579418182373,236.06652188301086,None,235.57273197174072,236.12895798683167,,,,,,,236.59883904457092,None,236.58126165866852,None,,,0001,01,standing,2021_Aug_09_1506,stroop,2021.2.0,59.92513472891343,
red,red,z,congruent,,,,,1,0,1,0,0,14,14,10,,,238.63602495193481,None,m,0,0.3147251605987549,238.63602495193481,None,238.1424310207367,238.6984179019928,,,,,,,239.0343599319458,None,239.01690771579743,None,,,0001,01,standing,2021_Aug_09_1506,stroop,2021.2.0,59.92513472891343,
red,red,z,congruent,,,,,1,0,1,0,0,15,15,22,,,241.05828595161438,None,m,0,0.3884999752044678,241.05828595161438,None,240.56668901443481,241.12068390846252,,,,,,,241.50074291229248,None,241.48305871486664,None,,,0001,01,standing,2021_Aug_09_1506,stroop,2021.2.0,59.92513472891343,
XXX,red,z,neutral,,,,,1,0,1,0,0,16,16,12,,,243.54631400108337,None,m,0,0.4124579429626465,243.54631400108337,None,243.04866695404053,243.6088900566101,,,,,,,244.03447198867798,None,244.0166945695877,None,,,0001,01,standing,2021_Aug_09_1506,stroop,2021.2.0,59.92513472891343,
XXXXX,green,m,neutral,,,,,1,0,1,0,0,17,17,27,,,246.0759470462799,None,m,1,0.3629179000854492,246.0759470462799,None,245.583881855011,246.13552594184875,,,,,,,246.50858998298645,None,246.4910085439682,None,,,0001,01,standing,2021_Aug_09_1506,stroop,2021.2.0,59.92513472891343,
XXX,red,z,neutral,,,,,1,0,1,0,0,18,18,24,,,248.53910493850708,None,z,1,0.41147899627685547,248.53910493850708,None,248.05262303352356,248.5991349220276,,,,,,,249.00280094146729,None,248.9897296667099,None,,,0001,01,standing,2021_Aug_09_1506,stroop,2021.2.0,59.92513472891343,
XXX,green,m,neutral,,,,,1,0,1,0,0,19,19,1,,,251.02600407600403,None,m,1,0.5488839149475098,251.02600407600403,None,250.53378987312317,251.08807587623596,,,,,,,251.64755201339722,None,251.62961866855622,None,,,0001,01,standing,2021_Aug_09_1506,stroop,2021.2.0,59.92513472891343,
XXXXX,red,z,neutral,,,,,1,0,1,0,0,20,20,14,,,253.65908694267273,None,z,1,0.37966299057006836,253.65908694267273,None,253.18471097946167,253.7205889225006,,,,,,,254.09201192855835,None,254.07435467243195,None,,,0001,01,standing,2021_Aug_09_1506,stroop,2021.2.0,59.92513472891343,
red,green,m,incongruent,,,,,1,0,1,0,0,21,21,17,,,256.1141629219055,None,m,1,0.4205300807952881,256.1141629219055,None,255.63987803459167,256.17337584495544,,,,,,,256.6123149394989,None,256.60104753971103,None,,,0001,01,standing,2021_Aug_09_1506,stroop,2021.2.0,59.92513472891343,
green,red,z,incongruent,,,,,1,0,1,0,0,22,22,4,,,258.65701484680176,None,z,1,0.4697699546813965,258.65701484680176,None,258.16412687301636,258.7195110321045,,,,,,,259.1896150112152,None,259.1715746164322,None,,,0001,01,standing,2021_Aug_09_1506,stroop,2021.2.0,59.92513472891343,
red,green,m,incongruent,,,,,1,0,1,0,0,23,23,29,,,261.24210000038147,None,m,1,0.6366360187530518,261.24210000038147,None,260.7490439414978,261.3045918941498,,,,,,,261.95576906204224,None,261.9469185113907,262.4696400165558,,,0001,01,standing,2021_Aug_09_1506,stroop,2021.2.0,59.92513472891343,
green,green,m,congruent,,,,,1,0,1,0,0,24,24,21,,,263.9971649646759,None,m,1,0.5378069877624512,263.9971649646759,None,263.5060670375824,264.05962204933167,,,,,,,264.6149790287018,None,264.60161569118503,None,,,0001,01,standing,2021_Aug_09_1506,stroop,2021.2.0,59.92513472891343,
XXX,red,z,neutral,,,,,1,0,1,0,0,25,25,0,,,266.64599895477295,None,z,1,0.49686503410339355,266.64599895477295,None,266.1666429042816,266.70857191085815,,,,,,,267.22363090515137,None,267.2060237169266,None,,,0001,01,standing,2021_Aug_09_1506,stroop,2021.2.0,59.92513472891343,
XXXXX,green,m,neutral,,,,,1,0,1,0,0,26,26,15,,,269.2737100124359,None,m,1,0.5093131065368652,269.2737100124359,None,268.78013801574707,269.3360650539398,,,,,,,269.85087490081787,None,269.8331296682358,None,,,0001,01,standing,2021_Aug_09_1506,stroop,2021.2.0,59.92513472891343,
green,red,z,incongruent,,,,,1,0,1,0,0,27,27,16,,,271.88453698158264,None,z,1,0.5864551067352295,271.88453698158264,None,271.3920679092407,271.9471459388733,,,,,,,272.5507619380951,None,272.5331495046616,None,,,0001,01,standing,2021_Aug_09_1506,stroop,2021.2.0,59.92513472891343,
green,green,m,congruent,,,,,1,0,1,0,0,28,28,9,,,274.5786349773407,None,m,1,0.4843919277191162,274.5786349773407,None,274.0859808921814,274.6412630081177,,,,,,,275.1551010608673,None,275.1378937005997,None,,,0001,01,standing,2021_Aug_09_1506,stroop,2021.2.0,59.92513472891343,
green,red,z,incongruent,,,,,1,0,1,0,0,29,29,28,,,277.18351888656616,None,z,1,0.6953549385070801,277.18351888656616,None,276.68998098373413,277.24576902389526,,,,,,,277.9390959739685,None,277.9213307142258,None,,,0001,01,standing,2021_Aug_09_1506,stroop,2021.2.0,59.92513472891343,
green,red,z,incongruent,,,,,1,0,1,0,0,30,30,6,,,279.97089290618896,None,z,1,0.355989933013916,279.97089290618896,None,279.4778609275818,280.03342604637146,,,,,,,280.4137098789215,None,280.3964855909348,280.92318391799927,,,0001,01,standing,2021_Aug_09_1506,stroop,2021.2.0,59.92513472891343,
XXXXX,green,m,neutral,,,,,1,0,1,0,0,31,31,3,,,282.4528498649597,None,m,1,0.3380298614501953,282.4528498649597,None,281.9609589576721,282.5152039527893,,,,,,,282.85069489479065,None,282.8328135251999,None,,,0001,01,standing,2021_Aug_09_1506,stroop,2021.2.0,59.92513472891343,
red,green,m,incongruent,,,,,1,0,1,0,0,32,32,31,,,284.8774559497833,None,m,1,0.441601037979126,284.8774559497833,None,284.38459491729736,284.93987107276917,,,,,,,285.4098389148712,None,285.39179470539096,None,,,0001,01,standing,2021_Aug_09_1506,stroop,2021.2.0,59.92513472891343,
red,red,z,congruent,,,,,1,0,1,0,0,33,33,32,,,287.4290449619293,None,m,0,0.4498319625854492,287.4290449619293,None,286.95040702819824,287.48951387405396,,,,,,,287.9560730457306,None,287.9376986265183,None,,,0001,01,standing,2021_Aug_09_1506,stroop,2021.2.0,59.92513472891343,
red,red,z,congruent,,,,,1,0,1,0,0,34,34,8,,,289.9805269241333,None,z,1,0.3144230842590332,289.9805269241333,None,289.4929869174957,290.04311084747314,,,,,,,290.37845492362976,None,290.36094858646396,None,,,0001,01,standing,2021_Aug_09_1506,stroop,2021.2.0,59.92513472891343,
red,red,z,congruent,,,,,1,0,1,0,0,35,35,34,,,292.3927628993988,None,z,1,0.3980410099029541,292.3927628993988,None,291.915137052536,292.4519078731537,,,,,,,292.8485178947449,None,292.8369376897812,293.36150002479553,,,0001,01,standing,2021_Aug_09_1506,stroop,2021.2.0,59.92513472891343,
,,,,,,,,1,0,1,0,,,,,,,,,,,,,,,,,,,,,,,,,,,,0001,01,standing,2021_Aug_09_1506,stroop,2021.2.0,59.92513472891343,
,,,,,,,,,,,,,,,,,,,,,,,,,,,,,,,,,,,,,294.5333478450775,None,,,,,,,,
