text,letterColor,correctAnswer,congruent,practice.thisRepN,practice.thisTrialN,practice.thisN,practice.thisIndex,trial_loop.thisRepN,trial_loop.thisTrialN,trial_loop.thisN,trial_loop.thisIndex,trials.thisRepN,trials.thisTrialN,trials.thisN,trials.thisIndex,instr1.started,instr1.stopped,word.started,word.stopped,resp.keys,resp.corr,resp.started,resp.stopped,fixation.started,fixation.stopped,feedback_2.started,feedback_2.stopped,sound_1.started,sound_1.stopped,resp.rt,instrText.started,instrText.stopped,feedback_3.started,feedback_3.stopped,sound_2.started,sound_2.stopped,thanksText.started,thanksText.stopped,participant,session,posture,date,expName,psychopyVersion,frameRate,
XXXXX,red,z,neutral,0,0,0,26,,,,,,,,,7.342802047729492,None,9.081718921661377,None,None,0,9.081718921661377,None,8.590757846832275,9.144078016281128,10.579478979110718,None,10.566341733932497,11.093003988265991,,,,,,,,,,0002,01,sitting,2021_Aug_09_1511,stroop,2021.2.0,60.08497812515221,
red,red,z,congruent,0,1,1,32,,,,,,,,,,,12.555315017700195,None,z,1,12.555315017700195,None,12.072476863861084,12.6145179271698,13.015746831893921,None,12.999753022193909,13.525023937225342,0.4078230857849121,,,,,,,,,0002,01,sitting,2021_Aug_09_1511,stroop,2021.2.0,60.08497812515221,
green,red,z,incongruent,0,2,2,16,,,,,,,,,,,15.066887855529785,None,m,0,15.066887855529785,None,14.573421001434326,15.129448890686035,15.649909973144531,None,15.626048111915589,None,0.4885520935058594,,,,,,,,,0002,01,sitting,2021_Aug_09_1511,stroop,2021.2.0,60.08497812515221,
XXX,red,z,neutral,0,3,3,24,,,,,,,,,,,17.69979691505432,None,m,0,17.69979691505432,None,17.206581830978394,17.762264013290405,18.142371892929077,None,18.125256085395815,18.64505100250244,0.3676109313964844,,,,,,,,,0002,01,sitting,2021_Aug_09_1511,stroop,2021.2.0,60.08497812515221,
red,green,m,incongruent,0,4,4,19,,,,,,,,,,,20.18302297592163,None,m,1,20.18302297592163,None,19.690052032470703,20.242471933364868,20.935999870300293,None,20.911911034584048,21.439613819122314,0.6843478679656982,,,,,,,,,0002,01,sitting,2021_Aug_09_1511,stroop,2021.2.0,60.08497812515221,
green,red,z,incongruent,0,5,5,30,,,,,,,,,,,22.986738920211792,None,z,1,22.986738920211792,None,22.493613958358765,23.049197912216187,23.392940998077393,None,23.366849207878115,23.892990827560425,0.32885193824768066,,,,,,,,,0002,01,sitting,2021_Aug_09_1511,stroop,2021.2.0,60.08497812515221,
XXXXX,green,m,neutral,0,6,6,27,,,,,,,,,,,25.441004991531372,None,m,1,25.441004991531372,None,24.938604831695557,25.503469944000244,25.92882204055786,None,25.911164069175722,26.430984020233154,0.4024498462677002,,,,,,,,,0002,01,sitting,2021_Aug_09_1511,stroop,2021.2.0,60.08497812515221,
XXXXX,red,z,neutral,0,7,7,14,,,,,,,,,,,27.97049903869629,None,m,0,27.97049903869629,None,27.47830891609192,28.033095836639404,28.68793797492981,None,28.66459324359894,None,0.624932050704956,,,,,,,,,0002,01,sitting,2021_Aug_09_1511,stroop,2021.2.0,60.08497812515221,
XXX,red,z,neutral,0,8,8,12,,,,,,,,,,,30.726781845092773,None,z,1,30.726781845092773,None,30.235739946365356,30.788974046707153,31.400359869003296,None,31.37595012187958,None,0.5886068344116211,,,,,,,,,0002,01,sitting,2021_Aug_09_1511,stroop,2021.2.0,60.08497812515221,
XXXXX,green,m,neutral,0,9,9,3,,,,,,,,,,,33.440449953079224,None,m,1,33.440449953079224,None,32.94816303253174,33.5029239654541,33.93373703956604,None,33.91033508777618,None,0.4031379222869873,,,,,,,,,0002,01,sitting,2021_Aug_09_1511,stroop,2021.2.0,60.08497812515221,
XXX,green,m,neutral,0,10,10,1,,,,,,,,,,,35.97882294654846,None,m,1,35.97882294654846,None,35.486172914505005,36.041430950164795,36.51882290840149,None,36.494441056251524,None,0.4565749168395996,,,,,,,,,0002,01,sitting,2021_Aug_09_1511,stroop,2021.2.0,60.08497812515221,
red,green,m,incongruent,0,11,11,31,,,,,,,,,,,38.543293952941895,None,m,1,38.543293952941895,None,38.068187952041626,38.602460861206055,39.03412985801697,None,39.020463013648985,None,0.40406107902526855,,,,,,,,,0002,01,sitting,2021_Aug_09_1511,stroop,2021.2.0,60.08497812515221,
red,red,z,congruent,0,12,12,8,,,,,,,,,,,41.07852602005005,None,z,1,41.07852602005005,None,40.58614683151245,41.140995025634766,41.48319697380066,None,41.45907809734344,None,0.3169741630554199,,,,,,,,,0002,01,sitting,2021_Aug_09_1511,stroop,2021.2.0,60.08497812515221,
green,green,m,congruent,0,13,13,23,,,,,,,,,,,43.527225971221924,None,m,1,43.527225971221924,None,43.03439903259277,43.589592933654785,44.14548182487488,None,44.12151005268097,44.65032696723938,0.5562338829040527,,,,,,,,,0002,01,sitting,2021_Aug_09_1511,stroop,2021.2.0,60.08497812515221,
XXX,green,m,neutral,0,14,14,13,,,,,,,,,,,46.16985583305359,None,m,1,46.16985583305359,None,45.69647288322449,46.228986978530884,46.742815017700195,None,46.719191098213194,47.253307819366455,0.5055861473083496,,,,,,,,,0002,01,sitting,2021_Aug_09_1511,stroop,2021.2.0,60.08497812515221,
green,red,z,incongruent,0,15,15,6,,,,,,,,,,,48.784729957580566,None,z,1,48.784729957580566,None,48.29164695739746,48.84713387489319,49.367106914520264,None,49.3437381029129,49.87731695175171,0.4826629161834717,,,,,,,,,0002,01,sitting,2021_Aug_09_1511,stroop,2021.2.0,60.08497812515221,
green,red,z,incongruent,0,16,16,28,,,,,,,,,,,51.41237497329712,None,z,1,51.41237497329712,None,50.91960382461548,51.47462487220764,52.26365900039673,None,52.240675234794615,None,0.7512490749359131,,,,,,,,,0002,01,sitting,2021_Aug_09_1511,stroop,2021.2.0,60.08497812515221,
XXXXX,red,z,neutral,0,17,17,2,,,,,,,,,,,54.292677879333496,None,z,1,54.292677879333496,None,53.803410053253174,54.35208487510681,54.780449867248535,None,54.75639703273773,None,0.41490721702575684,,,,,,,,,0002,01,sitting,2021_Aug_09_1511,stroop,2021.2.0,60.08497812515221,
green,green,m,congruent,0,18,18,35,,,,,,,,,,,56.81244683265686,None,m,1,56.81244683265686,None,56.337570905685425,56.87327194213867,57.47932696342468,None,57.45571210384369,57.9824378490448,0.5670020580291748,,,,,,,,,0002,01,sitting,2021_Aug_09_1511,stroop,2021.2.0,60.08497812515221,
red,green,m,incongruent,0,19,19,17,,,,,,,,,,,59.502941846847534,None,m,1,59.502941846847534,None,59.02796792984009,59.565372943878174,60.13073396682739,None,60.10699608325958,None,0.5645301342010498,,,,,,,,,0002,01,sitting,2021_Aug_09_1511,stroop,2021.2.0,60.08497812515221,
XXX,green,m,neutral,0,20,20,25,,,,,,,,,,,62.15779495239258,None,m,1,62.15779495239258,None,61.67458200454712,62.22014403343201,62.74061298370361,None,62.71726515293121,None,0.5016880035400391,,,,,,,,,0002,01,sitting,2021_Aug_09_1511,stroop,2021.2.0,60.08497812515221,
green,green,m,congruent,0,21,21,33,,,,,,,,,,,64.78346085548401,None,m,1,64.78346085548401,None,64.29107403755188,64.84585499763489,65.27765488624573,None,65.25379517078399,None,0.4042232036590576,,,,,,,,,0002,01,sitting,2021_Aug_09_1511,stroop,2021.2.0,60.08497812515221,
red,red,z,congruent,0,22,22,22,,,,,,,,,,,67.31958889961243,None,z,1,67.31958889961243,None,66.82696890830994,67.3818850517273,67.81362795829773,None,67.7896471261978,None,0.39591193199157715,,,,,,,,,0002,01,sitting,2021_Aug_09_1511,stroop,2021.2.0,60.08497812515221,
green,red,z,incongruent,0,23,23,18,,,,,,,,,,,69.85806488990784,None,m,0,69.85806488990784,None,69.36550498008728,69.92051696777344,70.54779291152954,None,70.52987315654754,71.0611310005188,0.609360933303833,,,,,,,,,0002,01,sitting,2021_Aug_09_1511,stroop,2021.2.0,60.08497812515221,
red,green,m,incongruent,0,24,24,7,,,,,,,,,,,72.57500791549683,None,m,1,72.57500791549683,None,72.08194398880005,72.6374900341034,73.4706358909607,None,73.44680311679839,None,0.8364989757537842,,,,,,,,,0002,01,sitting,2021_Aug_09_1511,stroop,2021.2.0,60.08497812515221,
red,red,z,congruent,0,25,25,20,,,,,,,,,,,75.50385999679565,None,z,1,75.50385999679565,None,75.0144100189209,75.56618404388428,76.08674192428589,None,76.06307413578033,None,0.4838278293609619,,,,,,,,,0002,01,sitting,2021_Aug_09_1511,stroop,2021.2.0,60.08497812515221,
red,red,z,congruent,0,26,26,10,,,,,,,,,,,78.13119888305664,None,z,1,78.13119888305664,None,77.63874292373657,78.19367098808289,78.52093386650085,None,78.50669219493865,None,0.32012510299682617,,,,,,,,,0002,01,sitting,2021_Aug_09_1511,stroop,2021.2.0,60.08497812515221,
green,green,m,congruent,0,27,27,9,,,,,,,,,,,80.5511200428009,None,m,1,80.5511200428009,None,80.05849504470825,80.6136839389801,81.10784196853638,None,81.08692262172698,81.59971404075623,0.4123849868774414,,,,,,,,,0002,01,sitting,2021_Aug_09_1511,stroop,2021.2.0,60.08497812515221,
green,green,m,congruent,0,28,28,11,,,,,,,,,,,83.13615489006042,None,m,1,83.13615489006042,None,82.64293789863586,83.19866490364075,83.67547798156738,None,83.65153410434722,84.18124985694885,0.4674370288848877,,,,,,,,,0002,01,sitting,2021_Aug_09_1511,stroop,2021.2.0,60.08497812515221,
red,green,m,incongruent,0,29,29,5,,,,,,,,,,,85.72680497169495,None,m,1,85.72680497169495,None,85.23514604568481,85.78810095787048,86.1255829334259,None,86.10181620121001,86.634516954422,0.3089268207550049,,,,,,,,,0002,01,sitting,2021_Aug_09_1511,stroop,2021.2.0,60.08497812515221,
green,green,m,congruent,0,30,30,21,,,,,,,,,,,88.17598700523376,None,m,1,88.17598700523376,None,87.68317985534668,88.23851895332336,88.66860389709473,None,88.6453840970993,89.173259973526,0.40383195877075195,,,,,,,,,0002,01,sitting,2021_Aug_09_1511,stroop,2021.2.0,60.08497812515221,
red,red,z,congruent,0,31,31,34,,,,,,,,,,,90.71300792694092,None,z,1,90.71300792694092,None,90.21994495391846,90.77567601203918,91.16250395774841,None,91.13810303211211,91.66929697990417,0.3626279830932617,,,,,,,,,0002,01,sitting,2021_Aug_09_1511,stroop,2021.2.0,60.08497812515221,
green,red,z,incongruent,0,32,32,4,,,,,,,,,,,93.20770287513733,None,z,1,93.20770287513733,None,92.71483302116394,93.2702898979187,94.013986825943,None,93.990381026268,None,0.7320020198822021,,,,,,,,,0002,01,sitting,2021_Aug_09_1511,stroop,2021.2.0,60.08497812515221,
XXXXX,green,m,neutral,0,33,33,15,,,,,,,,,,,96.0231249332428,None,z,0,96.0231249332428,None,95.54688692092896,96.08255887031555,96.83512902259827,None,96.81152608394622,97.3439998626709,0.73248291015625,,,,,,,,,0002,01,sitting,2021_Aug_09_1511,stroop,2021.2.0,60.08497812515221,
red,green,m,incongruent,0,34,34,29,,,,,,,,,,,98.87156391143799,None,m,1,98.87156391143799,None,98.37683296203613,98.93391704559326,99.4101710319519,None,99.3860211610794,None,0.4761679172515869,,,,,,,,,0002,01,sitting,2021_Aug_09_1511,stroop,2021.2.0,60.08497812515221,
XXX,red,z,neutral,0,35,35,0,,,,,,,,,,,101.45092391967773,None,z,1,101.45092391967773,None,100.95797491073608,101.51338696479797,102.03394389152527,None,102.0105202436447,None,0.48879098892211914,,,,,,,,,0002,01,sitting,2021_Aug_09_1511,stroop,2021.2.0,60.08497812515221,
red,red,z,congruent,,,,,0,0,0,0,0,0,0,32,,,106.4562599658966,None,z,1,106.4562599658966,None,105.95811295509338,106.51552987098694,,,,,0.39510583877563477,103.63110184669495,None,106.91983604431152,None,106.9008441209793,None,,,0002,01,sitting,2021_Aug_09_1511,stroop,2021.2.0,60.08497812515221,
red,green,m,incongruent,,,,,0,0,0,0,0,1,1,31,,,108.96215796470642,None,m,1,108.96215796470642,None,108.46921992301941,109.02459383010864,,,,,0.33754396438598633,,,109.36056590080261,None,109.34265806674956,109.8662359714508,,,0002,01,sitting,2021_Aug_09_1511,stroop,2021.2.0,60.08497812515221,
green,green,m,congruent,,,,,0,0,0,0,0,2,2,35,,,111.40909695625305,None,m,1,111.40909695625305,None,110.91617202758789,111.47161889076233,,,,,0.43450212478637695,,,111.93259882926941,None,111.91483213901519,None,,,0002,01,sitting,2021_Aug_09_1511,stroop,2021.2.0,60.08497812515221,
red,red,z,congruent,,,,,0,0,0,0,0,3,3,10,,,113.96483898162842,None,z,1,113.96483898162842,None,113.47189497947693,114.0273129940033,,,,,0.40680885314941406,,,114.45306897163391,None,114.43498709201812,None,,,0002,01,sitting,2021_Aug_09_1511,stroop,2021.2.0,60.08497812515221,
XXXXX,red,z,neutral,,,,,0,0,0,0,0,4,4,14,,,116.49087595939636,None,z,1,116.49087595939636,None,115.99774503707886,116.5535340309143,,,,,0.4087820053100586,,,116.97841501235962,None,116.96095302104949,None,,,0002,01,sitting,2021_Aug_09_1511,stroop,2021.2.0,60.08497812515221,
green,red,z,incongruent,,,,,0,0,0,0,0,5,5,18,,,119.0041618347168,None,z,1,119.0041618347168,None,118.51438498497009,119.06460905075073,,,,,0.32756614685058594,,,119.40016889572144,None,119.38207819461822,None,,,0002,01,sitting,2021_Aug_09_1511,stroop,2021.2.0,60.08497812515221,
XXXXX,green,m,neutral,,,,,0,0,0,0,0,6,6,27,,,121.42510986328125,None,m,1,121.42510986328125,None,120.93932890892029,121.48757100105286,,,,,0.38651108741760254,,,121.86757588386536,None,121.84979202747344,None,,,0002,01,sitting,2021_Aug_09_1511,stroop,2021.2.0,60.08497812515221,
green,red,z,incongruent,,,,,0,0,0,0,0,7,7,6,,,123.91927695274353,None,z,1,123.91927695274353,None,123.42646384239197,123.97842192649841,,,,,0.4043998718261719,,,124.40056085586548,None,124.38307502269744,None,,,0002,01,sitting,2021_Aug_09_1511,stroop,2021.2.0,60.08497812515221,
red,red,z,congruent,,,,,0,0,0,0,0,8,8,34,,,126.42679595947266,None,z,1,126.42679595947266,None,125.93435096740723,126.48936605453491,,,,,0.4248530864715576,,,126.91350889205933,None,126.89529302120208,None,,,0002,01,sitting,2021_Aug_09_1511,stroop,2021.2.0,60.08497812515221,
XXX,green,m,neutral,,,,,0,0,0,0,0,9,9,25,,,128.94911003112793,None,m,1,128.94911003112793,None,128.4560408592224,129.01145696640015,,,,,0.3824899196624756,,,129.39195585250854,None,129.37389209270478,129.8993079662323,,,0002,01,sitting,2021_Aug_09_1511,stroop,2021.2.0,60.08497812515221,
green,green,m,congruent,,,,,0,0,0,0,0,10,10,9,,,131.41363096237183,None,m,1,131.41363096237183,None,130.9279808998108,131.4748809337616,,,,,0.3500049114227295,,,131.84872603416443,None,131.8312561750412,None,,,0002,01,sitting,2021_Aug_09_1511,stroop,2021.2.0,60.08497812515221,
XXXXX,red,z,neutral,,,,,0,0,0,0,0,11,11,26,,,133.88090896606445,None,z,1,133.88090896606445,None,133.38821601867676,133.94342684745789,,,,,0.3628830909729004,,,134.32404398918152,None,134.30587222576142,None,,,0002,01,sitting,2021_Aug_09_1511,stroop,2021.2.0,60.08497812515221,
XXXXX,green,m,neutral,,,,,0,0,0,0,0,12,12,3,,,136.34420490264893,None,m,1,136.34420490264893,None,135.87060499191284,136.40351390838623,,,,,0.3793489933013916,,,136.8087170124054,None,136.7907390832901,None,,,0002,01,sitting,2021_Aug_09_1511,stroop,2021.2.0,60.08497812515221,
XXX,green,m,neutral,,,,,0,0,0,0,0,13,13,13,,,138.85743689537048,None,m,1,138.85743689537048,None,138.366112947464,138.91696190834045,,,,,0.41025495529174805,,,139.34297704696655,None,139.32541301250458,None,,,0002,01,sitting,2021_Aug_09_1511,stroop,2021.2.0,60.08497812515221,
red,green,m,incongruent,,,,,0,0,0,0,0,14,14,5,,,141.39529490470886,None,m,1,141.39529490470886,None,140.9025559425354,141.45794486999512,,,,,0.35253000259399414,,,141.83862900733948,None,141.82112720012665,None,,,0002,01,sitting,2021_Aug_09_1511,stroop,2021.2.0,60.08497812515221,
XXXXX,red,z,neutral,,,,,0,0,0,0,0,15,15,2,,,143.88850903511047,None,z,1,143.88850903511047,None,143.3974850177765,143.94861483573914,,,,,0.3229069709777832,,,144.267098903656,None,144.25004913806916,None,,,0002,01,sitting,2021_Aug_09_1511,stroop,2021.2.0,60.08497812515221,
red,green,m,incongruent,,,,,0,0,0,0,0,16,16,29,,,146.26895594596863,None,m,1,146.26895594596863,None,145.79466104507446,146.33070182800293,,,,,0.3747830390930176,,,146.71063995361328,None,146.69297721385956,147.22089004516602,,,0002,01,sitting,2021_Aug_09_1511,stroop,2021.2.0,60.08497812515221,
red,green,m,incongruent,,,,,0,0,0,0,0,17,17,19,,,148.74562287330627,None,m,1,148.74562287330627,None,148.25908994674683,148.80798983573914,,,,,0.3620729446411133,,,149.18820691108704,None,149.17077424526215,None,,,0002,01,sitting,2021_Aug_09_1511,stroop,2021.2.0,60.08497812515221,
red,green,m,incongruent,,,,,0,0,0,0,0,18,18,7,,,151.21335792541504,None,m,1,151.21335792541504,None,150.72064089775085,151.2756929397583,,,,,0.3266479969024658,,,151.6108739376068,None,151.59308722019196,None,,,0002,01,sitting,2021_Aug_09_1511,stroop,2021.2.0,60.08497812515221,
XXXXX,green,m,neutral,,,,,0,0,0,0,0,19,19,15,,,153.64128494262695,None,m,1,153.64128494262695,None,153.1493158340454,153.70382404327393,,,,,0.36246299743652344,,,154.08372282981873,None,154.06615903377534,None,,,0002,01,sitting,2021_Aug_09_1511,stroop,2021.2.0,60.08497812515221,
XXX,red,z,neutral,,,,,0,0,0,0,0,20,20,24,,,156.12711000442505,None,z,1,156.12711000442505,None,155.63459396362305,156.18972396850586,,,,,0.2925300598144531,,,156.4805679321289,None,156.4626870393753,None,,,0002,01,sitting,2021_Aug_09_1511,stroop,2021.2.0,60.08497812515221,
red,red,z,congruent,,,,,0,0,0,0,0,21,21,20,,,158.5080029964447,None,z,1,158.5080029964447,None,158.02193999290466,158.57020092010498,,,,,0.35970497131347656,,,158.95040702819824,None,158.93272211551667,None,,,0002,01,sitting,2021_Aug_09_1511,stroop,2021.2.0,60.08497812515221,
green,green,m,congruent,,,,,0,0,0,0,0,22,22,23,,,160.98794293403625,None,m,1,160.98794293403625,None,160.50856590270996,161.04713582992554,,,,,0.2795069217681885,,,161.318354845047,None,161.30665709972382,None,,,0002,01,sitting,2021_Aug_09_1511,stroop,2021.2.0,60.08497812515221,
red,green,m,incongruent,,,,,0,0,0,0,0,23,23,17,,,163.3597059249878,None,m,1,163.3597059249878,None,162.87626004219055,163.41871285438538,,,,,0.3399178981781006,,,163.77341198921204,None,163.7618611097336,None,,,0002,01,sitting,2021_Aug_09_1511,stroop,2021.2.0,60.08497812515221,
red,red,z,congruent,,,,,0,0,0,0,0,24,24,8,,,165.78696393966675,None,z,1,165.78696393966675,None,165.31332397460938,165.84613704681396,,,,,0.34465789794921875,,,166.2016999721527,None,166.189990067482,None,,,0002,01,sitting,2021_Aug_09_1511,stroop,2021.2.0,60.08497812515221,
XXX,red,z,neutral,,,,,0,0,0,0,0,25,25,12,,,168.23196387290955,None,z,1,168.23196387290955,None,167.7395360469818,168.294517993927,,,,,0.2678830623626709,,,168.5856740474701,None,168.5680270433426,None,,,0002,01,sitting,2021_Aug_09_1511,stroop,2021.2.0,60.08497812515221,
green,green,m,congruent,,,,,0,0,0,0,0,26,26,11,,,170.60102581977844,None,m,1,170.60102581977844,None,170.11545300483704,170.66357803344727,,,,,0.36279892921447754,,,171.0440649986267,None,171.0260460615158,None,,,0002,01,sitting,2021_Aug_09_1511,stroop,2021.2.0,60.08497812515221,
XXX,red,z,neutral,,,,,0,0,0,0,0,27,27,0,,,173.05604791641235,None,z,1,173.05604791641235,None,172.58044290542603,173.11577105522156,,,,,0.3714768886566162,,,173.51106190681458,None,173.49799015522004,None,,,0002,01,sitting,2021_Aug_09_1511,stroop,2021.2.0,60.08497812515221,
green,red,z,incongruent,,,,,0,0,0,0,0,28,28,16,,,175.53746795654297,None,z,1,175.53746795654297,None,175.0589439868927,175.59708905220032,,,,,0.4660971164703369,,,176.08230590820312,None,176.07073714733124,None,,,0002,01,sitting,2021_Aug_09_1511,stroop,2021.2.0,60.08497812515221,
green,green,m,congruent,,,,,0,0,0,0,0,29,29,33,,,178.10790991783142,None,m,1,178.10790991783142,None,177.61434888839722,178.17033696174622,,,,,0.3758399486541748,,,178.55055904388428,None,178.5326631307602,None,,,0002,01,sitting,2021_Aug_09_1511,stroop,2021.2.0,60.08497812515221,
XXX,green,m,neutral,,,,,0,0,0,0,0,30,30,1,,,180.56526684761047,None,m,1,180.56526684761047,None,180.08721899986267,180.62450790405273,,,,,0.4302079677581787,,,181.06325697898865,None,181.05156424045563,None,,,0002,01,sitting,2021_Aug_09_1511,stroop,2021.2.0,60.08497812515221,
green,red,z,incongruent,,,,,0,0,0,0,0,31,31,28,,,183.08985996246338,None,z,1,183.08985996246338,None,182.60845685005188,183.15019488334656,,,,,0.5136721134185791,,,183.68707489967346,None,183.67185618877411,184.1932728290558,,,0002,01,sitting,2021_Aug_09_1511,stroop,2021.2.0,60.08497812515221,
green,green,m,congruent,,,,,0,0,0,0,0,32,32,21,,,185.71387100219727,None,m,1,185.71387100219727,None,185.22072291374207,185.77327585220337,,,,,0.3696169853210449,,,186.12979197502136,None,186.1177542448044,None,,,0002,01,sitting,2021_Aug_09_1511,stroop,2021.2.0,60.08497812515221,
red,red,z,congruent,,,,,0,0,0,0,0,33,33,22,,,188.17248582839966,None,z,1,188.17248582839966,None,187.68659687042236,188.2350869178772,,,,,0.3592519760131836,,,188.61546182632446,None,188.5977392435074,189.12080693244934,,,0002,01,sitting,2021_Aug_09_1511,stroop,2021.2.0,60.08497812515221,
green,red,z,incongruent,,,,,0,0,0,0,0,34,34,30,,,190.6658308506012,None,z,1,190.6658308506012,None,190.17352986335754,190.72823095321655,,,,,0.4419069290161133,,,191.19798183441162,None,191.18020417690278,None,,,0002,01,sitting,2021_Aug_09_1511,stroop,2021.2.0,60.08497812515221,
green,red,z,incongruent,,,,,0,0,0,0,0,35,35,4,,,193.21974086761475,None,z,1,193.21974086761475,None,192.7282269001007,193.28218293190002,,,,,0.5119779109954834,,,193.7966878414154,None,193.77881815433503,194.30295491218567,,,0002,01,sitting,2021_Aug_09_1511,stroop,2021.2.0,60.08497812515221,
,,,,,,,,0,0,0,0,,,,,,,,,,,,,,,,,,,,,,,,,,,,0002,01,sitting,2021_Aug_09_1511,stroop,2021.2.0,60.08497812515221,
XXXXX,green,m,neutral,,,,,1,0,1,0,0,0,0,27,,,198.25580382347107,None,m,1,198.25580382347107,None,197.76097798347473,198.31498885154724,,,,,0.5000178813934326,195.40156292915344,None,198.82807397842407,None,198.80879118442536,None,,,0002,01,sitting,2021_Aug_09_1511,stroop,2021.2.0,60.08497812515221,
red,green,m,incongruent,,,,,1,0,1,0,0,1,1,5,,,200.85715293884277,None,m,1,200.85715293884277,None,200.3722438812256,200.9164638519287,,,,,0.3466019630432129,,,201.28054094314575,None,201.26247622966767,None,,,0002,01,sitting,2021_Aug_09_1511,stroop,2021.2.0,60.08497812515221,
red,red,z,congruent,,,,,1,0,1,0,0,2,2,20,,,203.31389498710632,None,z,1,203.31389498710632,None,202.82157588005066,203.3765139579773,,,,,0.3538210391998291,,,203.75450086593628,None,203.7395072221756,None,,,0002,01,sitting,2021_Aug_09_1511,stroop,2021.2.0,60.08497812515221,
red,red,z,congruent,,,,,1,0,1,0,0,3,3,8,,,205.76800084114075,None,z,1,205.76800084114075,None,205.2872748374939,205.8271508216858,,,,,0.4119069576263428,,,206.24813199043274,None,206.22987821102143,None,,,0002,01,sitting,2021_Aug_09_1511,stroop,2021.2.0,60.08497812515221,
green,red,z,incongruent,,,,,1,0,1,0,0,4,4,16,,,208.28772687911987,None,z,1,208.28772687911987,None,207.80862998962402,208.34872102737427,,,,,0.40392112731933594,,,208.76375889778137,None,208.7479861021042,None,,,0002,01,sitting,2021_Aug_09_1511,stroop,2021.2.0,60.08497812515221,
red,red,z,congruent,,,,,1,0,1,0,0,5,5,34,,,210.8156988620758,None,z,1,210.8156988620758,None,210.32292985916138,210.87808990478516,,,,,0.32407712936401367,,,211.21478486061096,None,211.19636824131013,None,,,0002,01,sitting,2021_Aug_09_1511,stroop,2021.2.0,60.08497812515221,
red,red,z,congruent,,,,,1,0,1,0,0,6,6,32,,,213.23871684074402,None,z,1,213.23871684074402,None,212.7492389678955,213.29795694351196,,,,,0.3649768829345703,,,213.6529779434204,None,213.64134409427643,214.1653769016266,,,0002,01,sitting,2021_Aug_09_1511,stroop,2021.2.0,60.08497812515221,
green,red,z,incongruent,,,,,1,0,1,0,0,7,7,4,,,215.70460200309753,None,z,1,215.70460200309753,None,215.20420694351196,215.76718091964722,,,,,0.3631749153137207,,,216.14797186851501,None,216.1298871278763,None,,,0002,01,sitting,2021_Aug_09_1511,stroop,2021.2.0,60.08497812515221,
XXX,red,z,neutral,,,,,1,0,1,0,0,8,8,12,,,218.19304490089417,None,z,1,218.19304490089417,None,217.7004108428955,218.25558400154114,,,,,0.4348001480102539,,,218.6781768798828,None,218.6627981901169,None,,,0002,01,sitting,2021_Aug_09_1511,stroop,2021.2.0,60.08497812515221,
XXXXX,red,z,neutral,,,,,1,0,1,0,0,9,9,2,,,220.73115587234497,None,z,1,220.73115587234497,None,220.23850393295288,220.7936429977417,,,,,0.40862512588500977,,,221.21854305267334,None,221.20099904537201,None,,,0002,01,sitting,2021_Aug_09_1511,stroop,2021.2.0,60.08497812515221,
XXXXX,red,z,neutral,,,,,1,0,1,0,0,10,10,26,,,223.26664185523987,None,z,1,223.26664185523987,None,222.77509593963623,223.3290238380432,,,,,0.4011800289154053,,,223.75231003761292,None,223.73681309223176,None,,,0002,01,sitting,2021_Aug_09_1511,stroop,2021.2.0,60.08497812515221,
red,green,m,incongruent,,,,,1,0,1,0,0,11,11,19,,,225.79927396774292,None,m,1,225.79927396774292,None,225.3064239025116,225.86184883117676,,,,,0.5565609931945801,,,226.42137789726257,None,226.40342214107514,None,,,0002,01,sitting,2021_Aug_09_1511,stroop,2021.2.0,60.08497812515221,
green,red,z,incongruent,,,,,1,0,1,0,0,12,12,28,,,228.45525002479553,None,z,1,228.45525002479553,None,227.95867800712585,228.5153169631958,,,,,0.7484049797058105,,,229.2700548171997,None,229.25836112499238,229.78214597702026,,,0002,01,sitting,2021_Aug_09_1511,stroop,2021.2.0,60.08497812515221,
XXX,green,m,neutral,,,,,1,0,1,0,0,13,13,25,,,231.3077049255371,None,m,1,231.3077049255371,None,230.80714893341064,231.37023496627808,,,,,0.7441339492797852,,,232.10851883888245,None,232.09045412540436,232.61946296691895,,,0002,01,sitting,2021_Aug_09_1511,stroop,2021.2.0,60.08497812515221,
XXX,red,z,neutral,,,,,1,0,1,0,0,14,14,0,,,234.15510892868042,None,z,1,234.15510892868042,None,233.66291689872742,234.21731996536255,,,,,0.5368309020996094,,,234.7759130001068,None,234.75817515850068,None,,,0002,01,sitting,2021_Aug_09_1511,stroop,2021.2.0,60.08497812515221,
red,green,m,incongruent,,,,,1,0,1,0,0,15,15,29,,,236.8082058429718,None,z,0,236.8082058429718,None,236.31493091583252,236.86858582496643,,,,,0.5876920223236084,,,237.45895791053772,None,237.44080712795258,None,,,0002,01,sitting,2021_Aug_09_1511,stroop,2021.2.0,60.08497812515221,
XXXXX,green,m,neutral,,,,,1,0,1,0,0,16,16,15,,,239.5093069076538,None,m,1,239.5093069076538,None,239.01749396324158,239.57159805297852,,,,,0.3986380100250244,,,239.99615788459778,None,239.9785630941391,None,,,0002,01,sitting,2021_Aug_09_1511,stroop,2021.2.0,60.08497812515221,
green,green,m,congruent,,,,,1,0,1,0,0,17,17,23,,,242.02710700035095,None,m,1,242.02710700035095,None,241.54441690444946,242.08976984024048,,,,,0.36058497428894043,,,242.4637348651886,None,242.44984414577485,None,,,0002,01,sitting,2021_Aug_09_1511,stroop,2021.2.0,60.08497812515221,
green,green,m,congruent,,,,,1,0,1,0,0,18,18,35,,,244.47125887870789,None,m,1,244.47125887870789,None,243.99621486663818,244.53373503684998,,,,,0.3646080493927002,,,244.91383290290833,None,244.8960960149765,None,,,0002,01,sitting,2021_Aug_09_1511,stroop,2021.2.0,60.08497812515221,
XXX,green,m,neutral,,,,,1,0,1,0,0,19,19,13,,,246.93961882591248,None,m,1,246.93961882591248,None,246.44730281829834,247.0021378993988,,,,,0.34421396255493164,,,247.3378210067749,None,247.31970121860505,None,,,0002,01,sitting,2021_Aug_09_1511,stroop,2021.2.0,60.08497812515221,
XXX,green,m,neutral,,,,,1,0,1,0,0,20,20,1,,,249.3762710094452,None,m,1,249.3762710094452,None,248.87776803970337,249.4386649131775,,,,,0.41962718963623047,,,249.86399698257446,None,249.8459182024002,None,,,0002,01,sitting,2021_Aug_09_1511,stroop,2021.2.0,60.08497812515221,
green,red,z,incongruent,,,,,1,0,1,0,0,21,21,18,,,251.89284992218018,None,z,1,251.89284992218018,None,251.40061402320862,251.95522904396057,,,,,0.27112698554992676,,,252.2391219139099,None,252.22747519016266,None,,,0002,01,sitting,2021_Aug_09_1511,stroop,2021.2.0,60.08497812515221,
red,green,m,incongruent,,,,,1,0,1,0,0,22,22,17,,,254.26743388175964,None,m,1,254.26743388175964,None,253.7751169204712,254.32983994483948,,,,,0.36055898666381836,,,254.70997405052185,None,254.69237520694733,None,,,0002,01,sitting,2021_Aug_09_1511,stroop,2021.2.0,60.08497812515221,
XXXXX,green,m,neutral,,,,,1,0,1,0,0,23,23,3,,,256.7381579875946,None,m,1,256.7381579875946,None,256.2446608543396,256.8006269931793,,,,,0.3215029239654541,,,257.1190299987793,None,257.10753204822544,257.61986684799194,,,0002,01,sitting,2021_Aug_09_1511,stroop,2021.2.0,60.08497812515221,
green,green,m,congruent,,,,,1,0,1,0,0,24,24,9,,,259.1380009651184,None,m,1,259.1380009651184,None,258.66142988204956,259.1973090171814,,,,,0.3859090805053711,,,259.608500957489,None,259.59076812267307,260.1184480190277,,,0002,01,sitting,2021_Aug_09_1511,stroop,2021.2.0,60.08497812515221,
green,green,m,congruent,,,,,1,0,1,0,0,25,25,33,,,261.6551949977875,None,m,1,261.6551949977875,None,261.16287994384766,261.7178349494934,,,,,0.31659388542175293,,,262.0525839328766,None,262.0352430582047,None,,,0002,01,sitting,2021_Aug_09_1511,stroop,2021.2.0,60.08497812515221,
red,green,m,incongruent,,,,,1,0,1,0,0,26,26,31,,,264.1039388179779,None,m,1,264.1039388179779,None,263.6113028526306,264.16619300842285,,,,,0.33191680908203125,,,264.5019018650055,None,264.48386218547824,None,,,0002,01,sitting,2021_Aug_09_1511,stroop,2021.2.0,60.08497812515221,
red,green,m,incongruent,,,,,1,0,1,0,0,27,27,7,,,266.538290977478,None,m,1,266.538290977478,None,266.0481879711151,266.6006028652191,,,,,0.32967495918273926,,,266.93651700019836,None,266.91874601840976,None,,,0002,01,sitting,2021_Aug_09_1511,stroop,2021.2.0,60.08497812515221,
green,green,m,congruent,,,,,1,0,1,0,0,28,28,21,,,268.96618390083313,None,m,1,268.96618390083313,None,268.47395300865173,269.0285220146179,,,,,0.2694408893585205,,,269.29193687438965,None,269.27830007076267,None,,,0002,01,sitting,2021_Aug_09_1511,stroop,2021.2.0,60.08497812515221,
XXX,red,z,neutral,,,,,1,0,1,0,0,29,29,24,,,271.32903385162354,None,z,1,271.32903385162354,None,270.83616495132446,271.39129996299744,,,,,0.41895079612731934,,,271.816517829895,None,271.7985520601273,272.3196189403534,,,0002,01,sitting,2021_Aug_09_1511,stroop,2021.2.0,60.08497812515221,
green,red,z,incongruent,,,,,1,0,1,0,0,30,30,6,,,273.856920003891,None,z,1,273.856920003891,None,273.3645808696747,273.9194128513336,,,,,0.387066125869751,,,274.2981698513031,None,274.2805941343308,None,,,0002,01,sitting,2021_Aug_09_1511,stroop,2021.2.0,60.08497812515221,
green,green,m,congruent,,,,,1,0,1,0,0,31,31,11,,,276.32024693489075,None,m,1,276.32024693489075,None,275.83490085601807,276.38035798072815,,,,,0.4835829734802246,,,276.8698089122772,None,276.8567750692368,277.37619495391846,,,0002,01,sitting,2021_Aug_09_1511,stroop,2021.2.0,60.08497812515221,
XXXXX,red,z,neutral,,,,,1,0,1,0,0,32,32,14,,,278.9166748523712,None,z,1,278.9166748523712,None,278.4242420196533,278.9791588783264,,,,,0.4953639507293701,,,279.4941568374634,None,279.47609403133396,None,,,0002,01,sitting,2021_Aug_09_1511,stroop,2021.2.0,60.08497812515221,
red,red,z,congruent,,,,,1,0,1,0,0,33,33,10,,,281.5225410461426,None,z,1,281.5225410461426,None,281.0307409763336,281.58509588241577,,,,,0.6733818054199219,,,282.2779109477997,None,282.2603271245957,None,,,0002,01,sitting,2021_Aug_09_1511,stroop,2021.2.0,60.08497812515221,
green,red,z,incongruent,,,,,1,0,1,0,0,34,34,30,,,284.32547998428345,None,z,1,284.32547998428345,None,283.83217000961304,284.38779187202454,,,,,0.3185710906982422,,,284.72384786605835,None,284.7060821294785,None,,,0002,01,sitting,2021_Aug_09_1511,stroop,2021.2.0,60.08497812515221,
red,red,z,congruent,,,,,1,0,1,0,0,35,35,22,,,286.75296902656555,None,z,1,286.75296902656555,None,286.26018500328064,286.8154978752136,,,,,0.41906285285949707,,,287.240975856781,None,287.2226741552353,None,,,0002,01,sitting,2021_Aug_09_1511,stroop,2021.2.0,60.08497812515221,
,,,,,,,,1,0,1,0,,,,,,,,,,,,,,,,,,,,,,,,,,,,0002,01,sitting,2021_Aug_09_1511,stroop,2021.2.0,60.08497812515221,
,,,,,,,,,,,,,,,,,,,,,,,,,,,,,,,,,,,,,288.9562020301819,None,,,,,,,,
