text,letterColor,correctAnswer,congruent,practice.thisRepN,practice.thisTrialN,practice.thisN,practice.thisIndex,trials.thisRepN,trials.thisTrialN,trials.thisN,trials.thisIndex,instr1.started,instr1.stopped,word.started,word.stopped,resp.keys,resp.corr,resp.rt,resp.started,resp.stopped,feedback_2.started,feedback_2.stopped,instrText.started,instrText.stopped,thanksText.started,thanksText.stopped,participant,session,posture,date,expName,psychopyVersion,frameRate,
green,red,z,incongruent,0,0,0,2,,,,,42.17661905288696,None,44.427692890167236,None,m,0,0.7189731597900391,44.427692890167236,None,45.21307706832886,None,,,,,006,01,standing,2021_Jul_31_2128,stroop-replication,2021.2.0,60.01757182555241,
green,green,m,congruent,0,1,1,3,,,,,,,46.68511509895325,None,z,0,0.2534451484680176,46.68511509895325,None,46.99888801574707,None,,,,,006,01,standing,2021_Jul_31_2128,stroop-replication,2021.2.0,60.01757182555241,
red,green,m,incongruent,0,2,2,1,,,,,,,48.50709295272827,None,m,1,0.4154798984527588,48.50709295272827,None,48.995152950286865,None,,,,,006,01,standing,2021_Jul_31_2128,stroop-replication,2021.2.0,60.01757182555241,
red,red,z,congruent,0,3,3,0,,,,,,,50.481208086013794,None,z,1,0.24910402297973633,50.481208086013794,None,50.7865149974823,None,,,,,006,01,standing,2021_Jul_31_2128,stroop-replication,2021.2.0,60.01757182555241,
red,green,m,incongruent,1,0,4,1,,,,,,,52.27122402191162,None,m,1,0.2992250919342041,52.27122402191162,None,52.63139605522156,None,,,,,006,01,standing,2021_Jul_31_2128,stroop-replication,2021.2.0,60.01757182555241,
green,red,z,incongruent,1,1,5,2,,,,,,,54.12344288825989,None,z,1,0.07907509803771973,54.12344288825989,None,54.28347897529602,None,,,,,006,01,standing,2021_Jul_31_2128,stroop-replication,2021.2.0,60.01757182555241,
green,green,m,congruent,1,2,6,3,,,,,,,55.77178597450256,None,m,1,0.25481390953063965,55.77178597450256,None,56.09271001815796,None,,,,,006,01,standing,2021_Jul_31_2128,stroop-replication,2021.2.0,60.01757182555241,
red,red,z,congruent,1,3,7,0,,,,,,,57.5781090259552,None,z,1,0.256105899810791,57.5781090259552,None,57.88430404663086,None,,,,,006,01,standing,2021_Jul_31_2128,stroop-replication,2021.2.0,60.01757182555241,
red,red,z,congruent,,,,,0,0,0,0,,,59.99096202850342,None,z,1,2.4995498657226562,59.99096202850342,None,,,58.92667889595032,None,,,006,01,standing,2021_Jul_31_2128,stroop-replication,2021.2.0,60.01757182555241,
green,red,z,incongruent,,,,,0,1,1,2,,,63.03938007354736,None,m,0,2.1872611045837402,63.03938007354736,None,,,,,,,006,01,standing,2021_Jul_31_2128,stroop-replication,2021.2.0,60.01757182555241,
red,green,m,incongruent,,,,,0,2,2,1,,,65.76665496826172,None,m,1,1.3318579196929932,65.76665496826172,None,,,,,,,006,01,standing,2021_Jul_31_2128,stroop-replication,2021.2.0,60.01757182555241,
green,green,m,congruent,,,,,0,3,3,3,,,67.6655580997467,None,m,1,0.5530250072479248,67.6655580997467,None,,,,,,,006,01,standing,2021_Jul_31_2128,stroop-replication,2021.2.0,60.01757182555241,
red,green,m,incongruent,,,,,1,0,4,1,,,68.76385402679443,None,m,1,0.39870190620422363,68.76385402679443,None,,,,,,,006,01,standing,2021_Jul_31_2128,stroop-replication,2021.2.0,60.01757182555241,
green,red,z,incongruent,,,,,1,1,5,2,,,69.7246880531311,None,z,1,0.38196301460266113,69.7246880531311,None,,,,,,,006,01,standing,2021_Jul_31_2128,stroop-replication,2021.2.0,60.01757182555241,
red,red,z,congruent,,,,,1,2,6,0,,,70.64432001113892,None,z,1,0.40634703636169434,70.64432001113892,None,,,,,,,006,01,standing,2021_Jul_31_2128,stroop-replication,2021.2.0,60.01757182555241,
green,green,m,congruent,,,,,1,3,7,3,,,71.58985495567322,None,m,1,0.4687211513519287,71.58985495567322,None,,,,,,,006,01,standing,2021_Jul_31_2128,stroop-replication,2021.2.0,60.01757182555241,
green,green,m,congruent,,,,,2,0,8,3,,,72.58507204055786,None,m,1,0.3375859260559082,72.58507204055786,None,,,,,,,006,01,standing,2021_Jul_31_2128,stroop-replication,2021.2.0,60.01757182555241,
green,red,z,incongruent,,,,,2,1,9,2,,,73.4596939086914,None,m,0,0.6950161457061768,73.4596939086914,None,,,,,,,006,01,standing,2021_Jul_31_2128,stroop-replication,2021.2.0,60.01757182555241,
red,red,z,congruent,,,,,2,2,10,0,,,74.69256806373596,None,z,1,0.6940469741821289,74.69256806373596,None,,,,,,,006,01,standing,2021_Jul_31_2128,stroop-replication,2021.2.0,60.01757182555241,
red,green,m,incongruent,,,,,2,3,11,1,,,75.93137907981873,None,m,1,0.5911228656768799,75.93137907981873,None,,,,,,,006,01,standing,2021_Jul_31_2128,stroop-replication,2021.2.0,60.01757182555241,
green,red,z,incongruent,,,,,3,0,12,2,,,77.07418990135193,None,z,1,0.6161501407623291,77.07418990135193,None,,,,,,,006,01,standing,2021_Jul_31_2128,stroop-replication,2021.2.0,60.01757182555241,
red,red,z,congruent,,,,,3,1,13,0,,,78.22846794128418,None,z,1,0.5339610576629639,78.22846794128418,None,,,,,,,006,01,standing,2021_Jul_31_2128,stroop-replication,2021.2.0,60.01757182555241,
red,green,m,incongruent,,,,,3,2,14,1,,,79.30154609680176,None,m,1,0.4689669609069824,79.30154609680176,None,,,,,,,006,01,standing,2021_Jul_31_2128,stroop-replication,2021.2.0,60.01757182555241,
green,green,m,congruent,,,,,3,3,15,3,,,80.32441687583923,None,m,1,0.48618483543395996,80.32441687583923,None,,,,,,,006,01,standing,2021_Jul_31_2128,stroop-replication,2021.2.0,60.01757182555241,
red,red,z,congruent,,,,,4,0,16,0,,,81.36350107192993,None,z,1,0.5671260356903076,81.36350107192993,None,,,,,,,006,01,standing,2021_Jul_31_2128,stroop-replication,2021.2.0,60.01757182555241,
green,red,z,incongruent,,,,,4,1,17,2,,,82.47480797767639,None,z,1,0.5119931697845459,82.47480797767639,None,,,,,,,006,01,standing,2021_Jul_31_2128,stroop-replication,2021.2.0,60.01757182555241,
green,green,m,congruent,,,,,4,2,18,3,,,83.5108470916748,None,m,1,0.6118631362915039,83.5108470916748,None,,,,,,,006,01,standing,2021_Jul_31_2128,stroop-replication,2021.2.0,60.01757182555241,
red,green,m,incongruent,,,,,4,3,19,1,,,84.6776270866394,None,m,1,0.48480701446533203,84.6776270866394,None,,,,,,,006,01,standing,2021_Jul_31_2128,stroop-replication,2021.2.0,60.01757182555241,
red,green,m,incongruent,,,,,5,0,20,1,,,85.70407891273499,None,m,1,0.5943341255187988,85.70407891273499,None,,,,,,,006,01,standing,2021_Jul_31_2128,stroop-replication,2021.2.0,60.01757182555241,
green,green,m,congruent,,,,,5,1,21,3,,,86.82474303245544,None,m,1,0.8499009609222412,86.82474303245544,None,,,,,,,006,01,standing,2021_Jul_31_2128,stroop-replication,2021.2.0,60.01757182555241,
red,red,z,congruent,,,,,5,2,22,0,,,88.22842001914978,None,z,1,0.5183939933776855,88.22842001914978,None,,,,,,,006,01,standing,2021_Jul_31_2128,stroop-replication,2021.2.0,60.01757182555241,
green,red,z,incongruent,,,,,5,3,23,2,,,89.30326199531555,None,z,1,0.5794870853424072,89.30326199531555,None,,,,,,,006,01,standing,2021_Jul_31_2128,stroop-replication,2021.2.0,60.01757182555241,
green,red,z,incongruent,,,,,6,0,24,2,,,90.42039108276367,None,z,1,0.406235933303833,90.42039108276367,None,,,,,,,006,01,standing,2021_Jul_31_2128,stroop-replication,2021.2.0,60.01757182555241,
red,green,m,incongruent,,,,,6,1,25,1,,,91.38049292564392,None,m,1,0.5501928329467773,91.38049292564392,None,,,,,,,006,01,standing,2021_Jul_31_2128,stroop-replication,2021.2.0,60.01757182555241,
green,green,m,congruent,,,,,6,2,26,3,,,92.45839095115662,None,m,1,0.43227100372314453,92.45839095115662,None,,,,,,,006,01,standing,2021_Jul_31_2128,stroop-replication,2021.2.0,60.01757182555241,
red,red,z,congruent,,,,,6,3,27,0,,,93.4588189125061,None,z,1,0.599869966506958,93.4588189125061,None,,,,,,,006,01,standing,2021_Jul_31_2128,stroop-replication,2021.2.0,60.01757182555241,
green,green,m,congruent,,,,,7,0,28,3,,,94.61916089057922,None,m,1,0.943533182144165,94.61916089057922,None,,,,,,,006,01,standing,2021_Jul_31_2128,stroop-replication,2021.2.0,60.01757182555241,
red,green,m,incongruent,,,,,7,1,29,1,,,96.09313702583313,None,m,1,1.0537700653076172,96.09313702583313,None,,,,,,,006,01,standing,2021_Jul_31_2128,stroop-replication,2021.2.0,60.01757182555241,
green,red,z,incongruent,,,,,7,2,30,2,,,97.69779109954834,None,z,1,0.5209188461303711,97.69779109954834,None,,,,,,,006,01,standing,2021_Jul_31_2128,stroop-replication,2021.2.0,60.01757182555241,
red,red,z,congruent,,,,,7,3,31,0,,,98.77779006958008,None,z,1,0.48093295097351074,98.77779006958008,None,,,,,,,006,01,standing,2021_Jul_31_2128,stroop-replication,2021.2.0,60.01757182555241,
red,green,m,incongruent,,,,,8,0,32,1,,,99.83254599571228,None,m,1,0.3700098991394043,99.83254599571228,None,,,,,,,006,01,standing,2021_Jul_31_2128,stroop-replication,2021.2.0,60.01757182555241,
red,red,z,congruent,,,,,8,1,33,0,,,100.76631903648376,None,z,1,0.49237895011901855,100.76631903648376,None,,,,,,,006,01,standing,2021_Jul_31_2128,stroop-replication,2021.2.0,60.01757182555241,
green,red,z,incongruent,,,,,8,2,34,2,,,101.80592608451843,None,z,1,0.7647819519042969,101.80592608451843,None,,,,,,,006,01,standing,2021_Jul_31_2128,stroop-replication,2021.2.0,60.01757182555241,
green,green,m,congruent,,,,,8,3,35,3,,,103.11911106109619,None,m,1,0.7958018779754639,103.11911106109619,None,,,,,,,006,01,standing,2021_Jul_31_2128,stroop-replication,2021.2.0,60.01757182555241,
red,red,z,congruent,,,,,9,0,36,0,,,104.45886492729187,None,z,1,0.5599088668823242,104.45886492729187,None,,,,,,,006,01,standing,2021_Jul_31_2128,stroop-replication,2021.2.0,60.01757182555241,
green,green,m,congruent,,,,,9,1,37,3,,,105.57799696922302,None,m,1,0.5769009590148926,105.57799696922302,None,,,,,,,006,01,standing,2021_Jul_31_2128,stroop-replication,2021.2.0,60.01757182555241,
red,green,m,incongruent,,,,,9,2,38,1,,,106.693608045578,None,m,1,1.125295877456665,106.693608045578,None,,,,,,,006,01,standing,2021_Jul_31_2128,stroop-replication,2021.2.0,60.01757182555241,
green,red,z,incongruent,,,,,9,3,39,2,,,108.3504490852356,None,z,1,0.5403199195861816,108.3504490852356,None,,,,,,,006,01,standing,2021_Jul_31_2128,stroop-replication,2021.2.0,60.01757182555241,
,,,,,,,,,,,,,,,,,,,,,,,,,109.00267100334167,None,,,,,,,,
