text,letterColor,correctAnswer,congruent,practice.thisRepN,practice.thisTrialN,practice.thisN,practice.thisIndex,trials.thisRepN,trials.thisTrialN,trials.thisN,trials.thisIndex,instr1.started,instr1.stopped,word.started,word.stopped,resp.keys,resp.corr,resp.rt,resp.started,resp.stopped,feedback_2.started,feedback_2.stopped,instrText.started,instrText.stopped,thanksText.started,thanksText.stopped,participant,session,posture,date,expName,psychopyVersion,frameRate,
green,red,z,incongruent,0,0,0,2,,,,,6.922079086303711,None,8.385642051696777,None,z,1,0.9921510219573975,8.385642051696777,None,9.435909986495972,None,,,,,008,01,sitting,2021_Aug_01_1824,stroop-replication,2021.2.0,59.916146331080576,
red,red,z,congruent,0,1,1,0,,,,,,,10.919073104858398,None,z,1,0.6027481555938721,10.919073104858398,None,11.572558164596558,None,,,,,008,01,sitting,2021_Aug_01_1824,stroop-replication,2021.2.0,59.916146331080576,
red,green,m,incongruent,0,2,2,1,,,,,,,13.052273988723755,None,m,1,0.629533052444458,13.052273988723755,None,13.724913120269775,None,,,,,008,01,sitting,2021_Aug_01_1824,stroop-replication,2021.2.0,59.916146331080576,
green,green,m,congruent,0,3,3,3,,,,,,,15.219142198562622,None,m,1,0.7666959762573242,15.219142198562622,None,16.01647400856018,None,,,,,008,01,sitting,2021_Aug_01_1824,stroop-replication,2021.2.0,59.916146331080576,
green,red,z,incongruent,1,0,4,2,,,,,,,17.50223708152771,None,z,1,0.8355228900909424,17.50223708152771,None,18.379775047302246,None,,,,,008,01,sitting,2021_Aug_01_1824,stroop-replication,2021.2.0,59.916146331080576,
red,green,m,incongruent,1,1,5,1,,,,,,,19.868952989578247,None,m,1,0.6288449764251709,19.868952989578247,None,20.540367126464844,None,,,,,008,01,sitting,2021_Aug_01_1824,stroop-replication,2021.2.0,59.916146331080576,
green,green,m,congruent,1,2,6,3,,,,,,,22.035759210586548,None,m,1,0.6382150650024414,22.035759210586548,None,22.703933000564575,None,,,,,008,01,sitting,2021_Aug_01_1824,stroop-replication,2021.2.0,59.916146331080576,
red,red,z,congruent,1,3,7,0,,,,,,,24.202357053756714,None,z,1,0.583521842956543,24.202357053756714,None,24.835272073745728,None,,,,,008,01,sitting,2021_Aug_01_1824,stroop-replication,2021.2.0,59.916146331080576,
red,green,m,incongruent,,,,,0,0,0,1,,,27.51900815963745,None,m,1,0.5307447910308838,27.51900815963745,None,,,25.869685173034668,None,,,008,01,sitting,2021_Aug_01_1824,stroop-replication,2021.2.0,59.916146331080576,
red,red,z,congruent,,,,,0,1,1,0,,,28.58559799194336,None,z,1,0.4402129650115967,28.58559799194336,None,,,,,,,008,01,sitting,2021_Aug_01_1824,stroop-replication,2021.2.0,59.916146331080576,
green,green,m,congruent,,,,,0,2,2,3,,,29.55265712738037,None,m,1,0.5932447910308838,29.55265712738037,None,,,,,,,008,01,sitting,2021_Aug_01_1824,stroop-replication,2021.2.0,59.916146331080576,
green,red,z,incongruent,,,,,0,3,3,2,,,30.66882300376892,None,z,1,0.5010530948638916,30.66882300376892,None,,,,,,,008,01,sitting,2021_Aug_01_1824,stroop-replication,2021.2.0,59.916146331080576,
green,red,z,incongruent,,,,,1,0,4,2,,,31.702227115631104,None,z,1,0.4596409797668457,31.702227115631104,None,,,,,,,008,01,sitting,2021_Aug_01_1824,stroop-replication,2021.2.0,59.916146331080576,
red,green,m,incongruent,,,,,1,1,5,1,,,32.68572998046875,None,m,1,0.484050989151001,32.68572998046875,None,,,,,,,008,01,sitting,2021_Aug_01_1824,stroop-replication,2021.2.0,59.916146331080576,
green,green,m,congruent,,,,,1,2,6,3,,,33.685686111450195,None,m,1,0.49226999282836914,33.685686111450195,None,,,,,,,008,01,sitting,2021_Aug_01_1824,stroop-replication,2021.2.0,59.916146331080576,
red,red,z,congruent,,,,,1,3,7,0,,,34.68571400642395,None,z,1,0.6121160984039307,34.68571400642395,None,,,,,,,008,01,sitting,2021_Aug_01_1824,stroop-replication,2021.2.0,59.916146331080576,
red,green,m,incongruent,,,,,2,0,8,1,,,35.81900501251221,None,m,1,0.7269999980926514,35.81900501251221,None,,,,,,,008,01,sitting,2021_Aug_01_1824,stroop-replication,2021.2.0,59.916146331080576,
green,green,m,congruent,,,,,2,1,9,3,,,37.07020115852356,None,m,1,0.43567991256713867,37.07020115852356,None,,,,,,,008,01,sitting,2021_Aug_01_1824,stroop-replication,2021.2.0,59.916146331080576,
red,red,z,congruent,,,,,2,2,10,0,,,38.034080028533936,None,z,1,0.46376991271972656,38.034080028533936,None,,,,,,,008,01,sitting,2021_Aug_01_1824,stroop-replication,2021.2.0,59.916146331080576,
green,red,z,incongruent,,,,,2,3,11,2,,,39.03464198112488,None,z,1,0.47116684913635254,39.03464198112488,None,,,,,,,008,01,sitting,2021_Aug_01_1824,stroop-replication,2021.2.0,59.916146331080576,
green,green,m,congruent,,,,,3,0,12,3,,,40.04603409767151,None,m,1,0.5479309558868408,40.04603409767151,None,,,,,,,008,01,sitting,2021_Aug_01_1824,stroop-replication,2021.2.0,59.916146331080576,
red,red,z,congruent,,,,,3,1,13,0,,,41.125324010849,None,z,1,0.46044421195983887,41.125324010849,None,,,,,,,008,01,sitting,2021_Aug_01_1824,stroop-replication,2021.2.0,59.916146331080576,
green,red,z,incongruent,,,,,3,2,14,2,,,42.109721183776855,None,z,1,0.42015504837036133,42.109721183776855,None,,,,,,,008,01,sitting,2021_Aug_01_1824,stroop-replication,2021.2.0,59.916146331080576,
red,green,m,incongruent,,,,,3,3,15,1,,,43.05165410041809,None,m,1,0.4862699508666992,43.05165410041809,None,,,,,,,008,01,sitting,2021_Aug_01_1824,stroop-replication,2021.2.0,59.916146331080576,
red,green,m,incongruent,,,,,4,0,16,1,,,44.062355041503906,None,m,1,0.4355309009552002,44.062355041503906,None,,,,,,,008,01,sitting,2021_Aug_01_1824,stroop-replication,2021.2.0,59.916146331080576,
green,red,z,incongruent,,,,,4,1,17,2,,,45.04632019996643,None,z,1,0.4115300178527832,45.04632019996643,None,,,,,,,008,01,sitting,2021_Aug_01_1824,stroop-replication,2021.2.0,59.916146331080576,
red,red,z,congruent,,,,,4,2,18,0,,,45.99924111366272,None,z,1,0.4187319278717041,45.99924111366272,None,,,,,,,008,01,sitting,2021_Aug_01_1824,stroop-replication,2021.2.0,59.916146331080576,
green,green,m,congruent,,,,,4,3,19,3,,,46.97058701515198,None,m,1,0.5352151393890381,46.97058701515198,None,,,,,,,008,01,sitting,2021_Aug_01_1824,stroop-replication,2021.2.0,59.916146331080576,
green,green,m,congruent,,,,,5,0,20,3,,,48.04465198516846,None,m,1,0.389362096786499,48.04465198516846,None,,,,,,,008,01,sitting,2021_Aug_01_1824,stroop-replication,2021.2.0,59.916146331080576,
red,green,m,incongruent,,,,,5,1,21,1,,,48.96444010734558,None,m,1,0.44531989097595215,48.96444010734558,None,,,,,,,008,01,sitting,2021_Aug_01_1824,stroop-replication,2021.2.0,59.916146331080576,
green,red,z,incongruent,,,,,5,2,22,2,,,49.94941711425781,None,z,1,0.46834301948547363,49.94941711425781,None,,,,,,,008,01,sitting,2021_Aug_01_1824,stroop-replication,2021.2.0,59.916146331080576,
red,red,z,congruent,,,,,5,3,23,0,,,50.965676069259644,None,z,1,0.508141040802002,50.965676069259644,None,,,,,,,008,01,sitting,2021_Aug_01_1824,stroop-replication,2021.2.0,59.916146331080576,
green,green,m,congruent,,,,,6,0,24,3,,,52.00402617454529,None,m,1,0.6538069248199463,52.00402617454529,None,,,,,,,008,01,sitting,2021_Aug_01_1824,stroop-replication,2021.2.0,59.916146331080576,
green,red,z,incongruent,,,,,6,1,25,2,,,53.20532202720642,None,z,1,0.8925881385803223,53.20532202720642,None,,,,,,,008,01,sitting,2021_Aug_01_1824,stroop-replication,2021.2.0,59.916146331080576,
red,red,z,congruent,,,,,6,2,26,0,,,54.632508993148804,None,z,1,0.4254150390625,54.632508993148804,None,,,,,,,008,01,sitting,2021_Aug_01_1824,stroop-replication,2021.2.0,59.916146331080576,
red,green,m,incongruent,,,,,6,3,27,1,,,55.58028221130371,None,m,1,0.4375901222229004,55.58028221130371,None,,,,,,,008,01,sitting,2021_Aug_01_1824,stroop-replication,2021.2.0,59.916146331080576,
green,red,z,incongruent,,,,,7,0,28,2,,,56.56396412849426,None,z,1,0.5258688926696777,56.56396412849426,None,,,,,,,008,01,sitting,2021_Aug_01_1824,stroop-replication,2021.2.0,59.916146331080576,
green,green,m,congruent,,,,,7,1,29,3,,,57.63786220550537,None,m,1,0.6359460353851318,57.63786220550537,None,,,,,,,008,01,sitting,2021_Aug_01_1824,stroop-replication,2021.2.0,59.916146331080576,
red,green,m,incongruent,,,,,7,2,30,1,,,58.81256914138794,None,m,1,0.4053201675415039,58.81256914138794,None,,,,,,,008,01,sitting,2021_Aug_01_1824,stroop-replication,2021.2.0,59.916146331080576,
red,red,z,congruent,,,,,7,3,31,0,,,59.76097917556763,None,z,1,0.5928969383239746,59.76097917556763,None,,,,,,,008,01,sitting,2021_Aug_01_1824,stroop-replication,2021.2.0,59.916146331080576,
red,red,z,congruent,,,,,8,0,32,0,,,60.88970398902893,None,z,1,0.5521340370178223,60.88970398902893,None,,,,,,,008,01,sitting,2021_Aug_01_1824,stroop-replication,2021.2.0,59.916146331080576,
red,green,m,incongruent,,,,,8,1,33,1,,,62.00783109664917,None,m,1,0.6020410060882568,62.00783109664917,None,,,,,,,008,01,sitting,2021_Aug_01_1824,stroop-replication,2021.2.0,59.916146331080576,
green,red,z,incongruent,,,,,8,2,34,2,,,63.17042803764343,None,z,1,0.4954960346221924,63.17042803764343,None,,,,,,,008,01,sitting,2021_Aug_01_1824,stroop-replication,2021.2.0,59.916146331080576,
green,green,m,congruent,,,,,8,3,35,3,,,64.20753598213196,None,m,1,0.40227198600769043,64.20753598213196,None,,,,,,,008,01,sitting,2021_Aug_01_1824,stroop-replication,2021.2.0,59.916146331080576,
green,green,m,congruent,,,,,9,0,36,3,,,65.16464519500732,None,m,1,0.3732430934906006,65.16464519500732,None,,,,,,,008,01,sitting,2021_Aug_01_1824,stroop-replication,2021.2.0,59.916146331080576,
green,red,z,incongruent,,,,,9,1,37,2,,,66.08155512809753,None,z,1,0.5603599548339844,66.08155512809753,None,,,,,,,008,01,sitting,2021_Aug_01_1824,stroop-replication,2021.2.0,59.916146331080576,
red,red,z,congruent,,,,,9,2,38,0,,,67.20372700691223,None,m,0,0.41423797607421875,67.20372700691223,None,,,,,,,008,01,sitting,2021_Aug_01_1824,stroop-replication,2021.2.0,59.916146331080576,
red,green,m,incongruent,,,,,9,3,39,1,,,68.16117310523987,None,m,1,0.4168429374694824,68.16117310523987,None,,,,,,,008,01,sitting,2021_Aug_01_1824,stroop-replication,2021.2.0,59.916146331080576,
,,,,,,,,,,,,,,,,,,,,,,,,,68.67478108406067,None,,,,,,,,
